Folder: scratch/scratch/src/apps/scratch/axel/tensile_tests

File: axelmultipletest.raw
"Prüfungstyp";"Manuell"
"Methodenname:";"C:\INSTRON\USER\TEMPLATE\Zugversuch Textilbeton.mtM"
"Name:";"Zugversuche Carbon"
"Prüfer";""
"Firma:";""
"Abteilung:";""
"Prüfdatum:";"01.01.97"
"Temperatur:";""
"Feuchtigkeit:";""
"Anmerkung 1:";""
"Anmerkung 2:";""
"Anmerkung 3:";""
"Geometrie:";"Rectangular"
"Probe";1
"Probenname:";"V19-Z-3-1"
"Breite:";100;"mm"
"Dicke:";10;"mm"
"Länge:";900;"mm"
"Durchmesser:";1.000000;"mm"
"Innendurchmesser:";0.500000;"mm"
"Außendurchm.:";1.000000;"mm"
"Wandstärke:";0.500000;"mm"
"Querschnitt:";1000;"mm*mm"
"Lineare Dichte:";1.000000;"den"
"Schlittengewicht:";9.806650;"N"
"Lade-Spannweite:";0.000000;"mm"
"Unterstütz.-Spannweite:";1.000000;"mm"
"Spannweitenverhältnis:";"2"
"Vorrichtungstyp:";"3-point"
"Kommentar:";""
"Eingefügt"
"Endbreite:";100;"mm"
"Enddicke:";10;"mm"
"Endlänge:";900;"mm"
"Enddurchmesser:";1.000000;"mm"
"Endinnendurchmesser:";0.500000;"mm"
"Endaußendurchmesser:";1.000000;"mm"
"Endwandstärke:";0.500000;"mm"
"Endquerschnitt:";1000;"mm*mm"
"Lineare Enddichte:";1.000000;"den"
"Zeit sec";"Verformung mm";"Dehnung 1 %";"Kraft N";"Spannung MPa";"Anz. der Zykl. ";"Zyklenzahl gesamt ";"Wiederholungswert ";"Dehnung [Trav.] %";"Tatsächliche dehnung %";"Korrigierte Position mm";"Zähigkeit gf/tex";"Tatsächliche spannung Pa"
0;0;-0,008269069;-563,4008;-0,5634008;0;0;0;0;0;0;-517058;-563400,8
5,5;0,01829558;-0,008752356;-189,05;-0,18905;0;0;0;0,002032843;0,002032822;0,01829558;-173499,6;-189053,9
11;0,03659117;-0,009001603;53,30699;0,05330699;0;0;0;0,004065685;0,004065603;0,03659117;48922,2;53309,16
16,5;0,05506612;-0,009151369;283,2078;0,2832078;0;0;0;0,006118458;0,006118271;0,05506612;259912,4;283225,1
22;0,07330192;-0,009047636;496,8073;0,4968073;0;0;0;0,008144658;0,008144326;0,07330192;455942,2;496847,8
27,5;0,0915975;-0,009182497;721,6796;0,7216796;0;0;0;0,0101775;0,01017698;0,0915975;662317,6;721753,1
33;0,1099529;-0,009023956;922,324;0,9223241;0;0;0;0,01221699;0,01221624;0,1099529;846457,9;922436,7
38,5;0,128368;-0,008971628;1108,786;1,108786;0;0;0;0,01426311;0,0142621;0,128368;1017583;1108944
44;0,1467234;-0,008741757;1284,131;1,284131;0;0;0;0,0163026;0,01630127;0,1467234;1178504;1284340
49,5;0,1649592;-0,008953095;1443,782;1,443782;0;0;0;0,0183288;0,01832712;0,1649592;1325023;1444047
55;0,1832548;-0,008336519;1586,286;1,586286;0;0;0;0,02036164;0,02035957;0,1832548;1455805;1586609
60,5;0,2017298;-0,008876316;1723,422;1,723422;0;0;0;0,02241442;0,02241191;0,2017298;1581661;1723808
66;0,2200851;-0,008573287;1843,502;1,843502;0;0;0;0,0244539;0,02445091;0,2200851;1691864;1843953
71,5;0,2383209;-0,008594517;1952,381;1,952381;0;0;0;0,0264801;0,0264766;0,2383209;1791787;1952897
77;0,2565567;-0,008472759;2043,096;2,043096;0;0;0;0,0285063;0,02850224;0,2565567;1875040;2043678
82,5;0,2750317;-0,008512883;2071,088;2,071088;0;0;0;0,03055907;0,0305544;0,2750317;1900730;2071721
88;0,293387;-0,008378406;2094,045;2,094045;0;0;0;0,03259856;0,03259325;0,293387;1921799;2094728
93,5;0,3116228;-0,008395728;2134,405;2,134405;0;0;0;0,03462476;0,03461876;0,3116228;1958839;2135144
99;0,3299184;-0,008632002;2218,646;2,218646;0;0;0;0,0366576;0,03665088;0,3299184;2036150;2219459
104,5;0,3483933;-0,008917277;2310,033;2,310033;0;0;0;0,03871037;0,03870288;0,3483933;2120021;2310927
110;0,3668085;-0,008922933;2394,693;2,394693;0;0;0;0,0407565;0,0407482;0,3668085;2197716;2395669
115,5;0,3849845;-0,009196091;2470,25;2,47025;0;0;0;0,04277606;0,04276691;0,3849845;2267059;2471307
121;0,4032801;-0,009106504;2534,707;2,534708;0;0;0;0,0448089;0,04479887;0,4032801;2326214;2535843
126,5;0,4216953;-0,009143994;2593,166;2,593166;0;0;0;0,04685503;0,04684406;0,4216953;2379865;2594381
132;0,4400507;-0,009028841;2640,073;2,640073;0;0;0;0,04889452;0,04888257;0,4400507;2422913;2641364
137,5;0,458406;-0,008918093;2663,687;2,663687;0;0;0;0,050934;0,05092104;0,458406;2444585;2665044
143;0,476582;-0,008510886;2635,891;2,635891;0;0;0;0,05295356;0,05293955;0,476582;2419075;2637287
148,5;0,4949972;-0,009144754;2517,135;2,517135;0;0;0;0,05499969;0,05498457;0,4949972;2310087;2518519
154;0,5134721;-0,008843988;2384,389;2,384389;0;0;0;0,05705246;0,05703619;0,5134721;2188260;2385749
159,5;0,531708;-0,008823738;2317,007;2,317007;0;0;0;0,05907866;0,05906122;0,531708;2126420;2318375
165;0,549884;-0,008130065;2408,274;2,408273;0;0;0;0,06109822;0,06107956;0,549884;2210180;2409745
170,5;0,5683588;-0,008983761;2686,478;2,686478;0;0;0;0,06315098;0,06313105;0,5683588;2465500;2688174
176;0,5867741;-0,008623633;2839,553;2,839553;0;0;0;0,06519712;0,06517588;0,5867741;2605984;2841404
181,5;0,6050098;-0,008577097;2925,429;2,925429;0;0;0;0,06722332;0,06720073;0,6050098;2684796;2927395
187;0,6232456;-0,00845977;3011,379;3,011379;0;0;0;0,06924952;0,06922555;0,6232456;2763677;3013464
192,5;0,641601;-0,008633572;3091,466;3,091466;0;0;0;0,071289;0,0712636;0,641601;2837176;3093670
198;0,660076;-0,008405796;3176,326;3,176326;0;0;0;0,07334178;0,07331489;0,660076;2915056;3178656
203,5;0,6783716;-0,008427494;3256,893;3,256893;0;0;0;0,07537462;0,07534623;0,6783716;2988996;3259348
209;0,6966074;-0,008311505;3334,773;3,334773;0;0;0;0,07740082;0,07737088;0,6966074;3060470;3337354
214,5;0,7149029;-0,008542846;3403,099;3,403099;0;0;0;0,07943366;0,07940213;0,7149029;3123176;3405802
220;0,7333779;-0,008269361;3475,984;3,475984;0;0;0;0,08148643;0,08145325;0,7333779;3190066;3478817
225,5;0,7517333;-0,008459362;3547,676;3,547676;0;0;0;0,08352592;0,08349106;0,7517333;3255861;3550639
231;0,7699093;-0,008357317;3617,613;3,617613;0;0;0;0,08554548;0,08550891;0,7699093;3320045;3620708
236,5;0,7882646;-0,008529766;3684,666;3,684666;0;0;0;0,08758496;0,08754662;0,7882646;3381582;3687893
242;0,8067396;-0,008429826;3752,723;3,752723;0;0;0;0,08963773;0,08959758;0,8067396;3444041;3756086
247,5;0,8250352;-0,008132434;3815,268;3,815268;0;0;0;0,09167057;0,09162858;0,8250352;3501441;3818765
253;0,843271;-0,008468065;3878,822;3,878822;0;0;0;0,09369678;0,09365291;0,843271;3559768;3882457
258,5;0,8615666;-0,008593164;3947,501;3,9475;0;0;0;0,09572962;0,09568383;0,8615666;3622797;3951279
264;0,8800416;-0,00842457;4018,991;4,018991;0;0;0;0,0977824;0,09773462;0,8800416;3688408;4022921
269,5;0,8983969;-0,008479758;4091,378;4,091378;0;0;0;0,09982188;0,09977209;0,8983969;3754840;4095462
275;0,9166925;-0,00831804;4166,7;4,1667;0;0;0;0,1018547;0,1018029;0,9166925;3823966;4170944
280,5;0,9349283;-0,00850877;4239,07;4,23907;0;0;0;0,1038809;0,103827;0,9349283;3890384;4243474
286;0,9534032;-0,008559452;4318,599;4,318599;0;0;0;0,1059337;0,1058776;0,9534032;3963371;4323174
291,5;0,9718184;-0,008828436;4400,68;4,40068;0;0;0;0,1079798;0,1079216;0,9718184;4038701;4405432
297;0,9899944;-0,008778724;4480,62;4,48062;0;0;0;0,1099994;0,1099389;0,9899944;4112065;4485549
302,5;1,00823;-0,008805742;4555,656;4,555655;0;0;0;0,1120256;0,1119629;1,00823;4180928;4560759
308;1,026705;-0,008744013;2728,321;2,728321;0;0;0;0,1140784;0,1140133;1,026705;2503902;2731434
313,5;1,04512;-0,008761046;2822,952;2,822952;0;0;0;0,1161245;0,1160571;1,04512;2590749;2826230
319;1,063356;-0,008685876;2775,522;2,775522;0;0;0;0,1181507;0,1180809;1,063356;2547221;2778801
324,5;1,081592;-0,008816738;2709,223;2,709223;0;0;0;0,1201769;0,1201047;1,081592;2486375;2712479
330;1,100067;-0,00852719;2665,295;2,665295;0;0;0;0,1222296;0,122155;1,100067;2446060;2668553
335,5;1,118422;-0,008753997;2619,009;2,619009;0;0;0;0,1242691;0,124192;1,118422;2403581;2622264
341;1,136718;-0,008558476;2596,536;2,596536;0;0;0;0,126302;0,1262223;1,136718;2382957;2599816
346,5;1,154954;-0,008562941;2569,669;2,569669;0;0;0;0,1283282;0,1282459;1,154954;2358300;2572967
352;1,173369;-0,008698773;2520,555;2,520555;0;0;0;0,1303743;0,1302894;1,173369;2313226;2523841
357,5;1,191724;-0,008639419;2508,082;2,508082;0;0;0;0,1324138;0,1323262;1,191724;2301779;2511403
363;1,21002;-0,008637471;2485,125;2,485125;0;0;0;0,1344466;0,1343563;1,21002;2280710;2488466
368,5;1,228256;-0,008852834;2457,399;2,457399;0;0;0;0,1364728;0,1363798;1,228256;2255265;2460753
374;1,246611;-0,008723961;2435,638;2,435638;0;0;0;0,1385123;0,1384165;1,246611;2235294;2439012
379,5;1,265086;-0,008852948;2418,72;2,41872;0;0;0;0,1405651;0,1404664;1,265086;2219767;2422120
385;1,283322;-0,008662323;2421,336;2,421336;0;0;0;0,1425913;0,1424897;1,283322;2222168;2424788
390,5;1,301557;-0,00873968;2423,08;2,42308;0;0;0;0,1446175;0,144513;1,301557;2223768;2426584
396;1,319973;-0,008455284;2419,165;2,419165;0;0;0;0,1466636;0,1465562;1,319973;2220176;2422713
401,5;1,338448;-0,008571352;2407,977;2,407977;0;0;0;0,1487164;0,1486059;1,338448;2209908;2411558
407;1,356624;-0,008514361;2389,813;2,389813;0;0;0;0,150736;0,1506225;1,356624;2193238;2393416
412,5;1,456352;-0,007879401;2335,991;2,335991;0;0;0;0,1618169;0,1616862;1,456352;2143844;2339771
418;1,639428;-0,008686935;1974,192;1,974193;0;0;0;0,1821586;0,1819929;1,639428;1811805;1977789
423,5;1,822862;-0,008784768;1697,502;1,697502;0;0;0;0,2025402;0,2023354;1,822862;1557873;1700940
429;2,006117;-0,008806487;1448,484;1,448484;0;0;0;0,2229019;0,2226538;2,006117;1329338;1451713
434,5;2,189431;-0,008950885;1245,656;1,245656;0;0;0;0,2432702;0,2429747;2,189431;1143195;1248687
440;2,372985;-0,008858342;1056,072;1,056072;0;0;0;0,263665;0,263318;2,372985;969203,9;1058856
445,5;2,55606;-0,009056058;840,4181;0,8404182;0;0;0;0,2840067;0,2836042;2,55606;771289,2;842805
451;2,739674;-0,009079266;672,5377;0,6725377;0;0;0;0,3044082;0,3039458;2,739674;617217,9;674585
456,5;2,92269;-0,009239844;542,8777;0,5428777;0;0;0;0,3247433;0,3242172;2,92269;498223;544640,6
462;3,106303;-0,00901063;473,8692;0,4738692;0;0;0;0,3451448;0,3445505;3,106303;434890,9;475504,8
467,5;3,289498;-0,008791773;417,2023;0,4172024;0;0;0;0,3654998;0,3648335;3,289498;382885,2;418727,2
473;3,472753;-0,008689209;341,8142;0,3418142;0;0;0;0,3858614;0,3851189;3,472753;313698,2;343133,2
478,5;3,656247;-0,00847183;253,618;0,253618;0;0;0;0,4062497;0,4054267;3,656247;232756,6;254648,3
484;3,839382;-0,008381784;208,5257;0,2085257;0;0;0;0,426598;0,4256907;3,839382;191373,3;209415,3
489,5;4,022936;-0,008728461;148,1235;0,1481235;0;0;0;0,4469929;0,4459969;4,022936;135939,5;148785,6
495;4,206011;-0,008696421;93,94545;0,09394545;0;0;0;0,4673346;0,466246;4,206011;86217,93;94384,49
500,5;4,389625;-0,008613592;62,27254;0,06227254;0;0;0;0,4877361;0,4865505;4,389625;57150,29;62576,27
506;4,5727;-0,008536879;45,81056;0,04581056;0;0;0;0,5080778;0,5067914;4,5727;42042,39;46043,31
511,5;4,756134;-0,008700431;37,39789;0,03739789;0;0;0;0,5284594;0,5270679;4,756134;34321,71;37595,53
517;4,939569;-0,008599093;28,70422;0,02870422;0;0;0;0,5488409;0,5473403;4,939569;26343,14;28861,76
522,5;5,122764;-0,008708853;22,74686;0,02274686;0;0;0;0,5691959;0,5675822;5,122764;20875,81;22876,34
522,626;5,127008;-0,008250684;20,0508;0,02005081;0;0;0;0,5696676;0,5680511;5,127008;18401,52;20165,03

File: axelmulttiple.2tdM.raw
"Prüfungstyp";"Manuell"
"Methodenname:";"C:\INSTRON\USER\TEMPLATE\Zugversuch Textilbeton.mtM"
"Name:";"Zugversuche Carbon"
"Prüfer";""
"Firma:";""
"Abteilung:";""
"Prüfdatum:";"01.01.97"
"Temperatur:";""
"Feuchtigkeit:";""
"Anmerkung 1:";""
"Anmerkung 2:";""
"Anmerkung 3:";""
"Geometrie:";"Rectangular"
"Probe";1
"Probenname:";"V19-Z-3-1"
"Breite:";100;"mm"
"Dicke:";10;"mm"
"Länge:";900;"mm"
"Durchmesser:";1.000000;"mm"
"Innendurchmesser:";0.500000;"mm"
"Außendurchm.:";1.000000;"mm"
"Wandstärke:";0.500000;"mm"
"Querschnitt:";1000;"mm*mm"
"Lineare Dichte:";1.000000;"den"
"Schlittengewicht:";9.806650;"N"
"Lade-Spannweite:";0.000000;"mm"
"Unterstütz.-Spannweite:";1.000000;"mm"
"Spannweitenverhältnis:";"2"
"Vorrichtungstyp:";"3-point"
"Kommentar:";""
"Eingefügt"
"Endbreite:";100;"mm"
"Enddicke:";10;"mm"
"Endlänge:";900;"mm"
"Enddurchmesser:";1.000000;"mm"
"Endinnendurchmesser:";0.500000;"mm"
"Endaußendurchmesser:";1.000000;"mm"
"Endwandstärke:";0.500000;"mm"
"Endquerschnitt:";1000;"mm*mm"
"Lineare Enddichte:";1.000000;"den"
"Zeit sec";"Verformung mm";"Dehnung 1 %";"Kraft N";"Spannung MPa";"Anz. der Zykl. ";"Zyklenzahl gesamt ";"Wiederholungswert ";"Dehnung [Trav.] %";"Tatsächliche dehnung %";"Korrigierte Position mm";"Zähigkeit gf/tex";"Tatsächliche spannung Pa"
0;0;-0,007945212;8,369792;0,008369792;0;0;0;0;0;0;7681,332;8369,792
3,5;0,01171874;-0,008699715;258,4208;0,2584208;0;0;0;0,001302082;0,001302074;0,01171874;237164,3;258424,1
7;0,02343748;-0,008647741;589,546;0,589546;0;0;0;0,002604165;0,002604131;0,02343748;541052,6;589561,3
10,5;0,03503664;-0,008672792;827,3442;0,8273442;0;0;0;0,00389296;0,003892884;0,03503664;759290,7;827376,4
14;0,04657601;-0,008885535;1040,003;1,040003;0;0;0;0,005175113;0,005174979;0,04657601;954456,9;1040057
17,5;0,05829476;-0,008832944;1234,846;1,234846;0;0;0;0,006477195;0,006476985;0,05829476;1133273;1234926
21;0,0699537;-0,009075545;1320,808;1,320808;0;0;0;0,007772634;0,007772332;0,0699537;1212164;1320910
24,5;0,08173223;-0,009093772;1513,733;1,513733;0;0;0;0,009081359;0,009080947;0,08173223;1389220;1513870
28;0,09339118;-0,008913418;1659,599;1,659599;0;0;0;0,0103768;0,01037626;0,09339118;1523088;1659771
31,5;0,1051099;-0,009178284;1796,672;1,796672;0;0;0;0,01167888;0,0116782;0,1051099;1648886;1796882
35;0,1167689;-0,008965305;1927,418;1,927418;0;0;0;0,01297432;0,01297348;0,1167689;1768877;1927668
38,5;0,1284278;-0,009186483;2053,41;2,05341;0;0;0;0,01426976;0,01426874;0,1284278;1884506;2053703
42;0,1399672;-0,009021625;2181,699;2,181699;0;0;0;0,01555191;0,0155507;0,1399672;2002242;2182038
45,5;0,1515664;-0,009182951;2311,4;2,3114;0;0;0;0,01684071;0,01683929;0,1515664;2121275;2311789
49;0,1632851;-0,009176267;2430,847;2,430846;0;0;0;0,01814279;0,01814114;0,1632851;2230896;2431288
52,5;0,1749441;-0,00915584;2534,032;2,534032;0;0;0;0,01943823;0,01943634;0,1749441;2325594;2534525
56;0,1867226;-0,009121546;2642,675;2,642675;0;0;0;0,02074695;0,0207448;0,1867226;2425301;2643224
59,5;0,1984413;-0,009179563;2744,937;2,744937;0;0;0;0,02204903;0,0220466;0,1984413;2519152;2745543
63;0,2101003;-0,009054459;2830,983;2,830983;0;0;0;0,02334448;0,02334175;0,2101003;2598119;2831644
66,5;0,2217592;-0,009164174;2912,32;2,91232;0;0;0;0,02463991;0,02463688;0,2217592;2672766;2913038
70;0,2332986;-0,009034817;2970,731;2,970731;0;0;0;0,02592207;0,02591871;0,2332986;2726372;2971501
73,5;0,2448978;-0,009036241;3041,134;3,041134;0;0;0;0,02721086;0,02720716;0,2448978;2790984;3041961
77;0,2566165;-0,008838145;3115,895;3,115895;0;0;0;0,02851294;0,02850888;0,2566165;2859596;3116783
80,5;0,2682754;-0,008909;3174,03;3,17403;0;0;0;0,02980838;0,02980394;0,2682754;2912949;3174977
84;0,280054;-0,008465431;3209,721;3,209721;0;0;0;0,03111711;0,03111227;0,280054;2945704;3210720
87,5;0,2917129;-0,008426551;3223,807;3,223807;0;0;0;0,03241255;0,03240729;0,2917129;2958632;3224852
91;0,3034317;-0,008518714;3262,351;3,262352;0;0;0;0,03371463;0,03370895;0,3034317;2994006;3263451
94,5;0,3150906;-0,008832078;3288,916;3,288916;0;0;0;0,03501007;0,03500394;0,3150906;3018385;3290068
98;0,3267496;-0,008700973;3321,367;3,321367;0;0;0;0,03630551;0,03629892;0,3267496;3048167;3322573
101,5;0,338289;-0,009257169;3307,062;3,307062;0;0;0;0,03758766;0,0375806;0,338289;3035039;3308305
105;0,3498881;-0,009015132;3312,601;3,312601;0;0;0;0,03887646;0,0388689;0,3498881;3040122;3313889
108,5;0,3616069;-0,008808904;3321,336;3,321336;0;0;0;0,04017854;0,04017047;0,3616069;3048138;3322671
112;0,3733256;-0,008736065;3323,021;3,323021;0;0;0;0,04148062;0,04147202;0,3733256;3049684;3324399
115,5;0,3849845;-0,00847346;3329,638;3,329638;0;0;0;0,04277606;0,04276691;0,3849845;3055757;3331062
119;0,3967631;-0,008518521;3331,195;3,331195;0;0;0;0,04408478;0,04407507;0,3967631;3057186;3332664
122,5;0,4083622;-0,008398941;3341,611;3,341611;0;0;0;0,04537358;0,04536329;0,4083622;3066746;3343128
126;0,420081;-0,008832038;3335,214;3,335214;0;0;0;0,04667566;0,04666477;0,420081;3060875;3336771
129,5;0,4316801;-0,008647533;3335,44;3,33544;0;0;0;0,04796446;0,04795296;0,4316801;3061082;3337040
133;0,4432195;-0,009185386;3330,614;3,330614;0;0;0;0,04924661;0,04923449;0,4432195;3056653;3332255
136,5;0,4549383;-0,008203249;3332,027;3,332027;0;0;0;0,0505487;0,05053592;0,4549383;3057950;3333711
140;0,466657;-0,009159148;3353,443;3,353443;0;0;0;0,05185077;0,05183734;0,466657;3077605;3355182
143,5;0,4783159;-0,008984897;3358,25;3,35825;0;0;0;0,05314621;0,0531321;0,4783159;3082016;3360035
147;0,4900346;-0,00899889;3347,196;3,347196;0;0;0;0,0544483;0,05443348;0,4900346;3071871;3349019
150,5;0,5017534;-0,008760053;3360,779;3,360779;0;0;0;0,05575038;0,05573485;0,5017534;3084337;3362653
154;0,5134124;-0,008640471;3368,902;3,368902;0;0;0;0,05704582;0,05702955;0,5134124;3091792;3370824
157,5;0,5250713;-0,008475782;3370,68;3,37068;0;0;0;0,05834125;0,05832424;0,5250713;3093424;3372647
161;0,5366107;-0,008398558;3371,734;3,371734;0;0;0;0,05962341;0,05960564;0,5366107;3094391;3373744
164,5;0,5482098;-0,00857691;3346,485;3,346484;0;0;0;0,0609122;0,06089366;0,5482098;3071218;3348523
168;0,5599883;-0,008500502;3344,698;3,344697;0;0;0;0,06222093;0,06220158;0,5599883;3069578;3346779
171,5;0,5717071;-0,008310093;3350,74;3,35074;0;0;0;0,06352301;0,06350284;0,5717071;3075124;3352868
175;0,5833063;-0,00890036;3361,551;3,361551;0;0;0;0,06481181;0,06479081;0,5833063;3085045;3363729
178,5;0,595025;-0,008285239;3348,481;3,34848;0;0;0;0,06611389;0,06609205;0,595025;3073050;3350694
182;0,6067437;-0,008994418;3337,22;3,33722;0;0;0;0,06741597;0,06739325;0,6067437;3062716;3339470
185,5;0,6184027;-0,008066862;3317,53;3,31753;0;0;0;0,06871141;0,06868782;0,6184027;3044645;3319809
189;0,6300019;-0,009179819;3329,785;3,329785;0;0;0;0,07000021;0,06997572;0,6300019;3055892;3332116
192,5;0,6415412;-0,008786548;3316,189;3,316189;0;0;0;0,07128236;0,07125697;0,6415412;3043415;3318553
196;0,65326;-0,009272797;3295,29;3,29529;0;0;0;0,07258444;0,07255811;0,65326;3024234;3297682
199,5;0,6649787;-0,009309979;3235,305;3,235305;0;0;0;0,07388653;0,07385924;0,6649787;2969184;3237695
203;0,6766974;-0,008784673;3248,806;3,248806;0;0;0;0,07518861;0,07516035;0,6766974;2981574;3251249
206,5;0,6884162;-0,00928395;3253,761;3,253761;0;0;0;0,07649069;0,07646145;0,6884162;2986122;3256250
210;0,7001349;-0,008134023;3252,123;3,252123;0;0;0;0,07779277;0,07776253;0,7001349;2984618;3254652
[...]
224;0,7465316;-0,008579717;3227,633;3,227633;0;0;0;0,08294795;0,08291357;0,7465316;2962143;3230310
227,5;0,7582503;-0,008839304;3212,159;3,212159;0;0;0;0,08425004;0,08421457;0,7582503;2947942;3214866
231;0,7700288;-0,009041404;3191,954;3,191953;0;0;0;0,08555876;0,08552218;0,7700288;2929398;3194685
234,5;0,7816878;-0,009014491;3179,167;3,179167;0;0;0;0,0868542;0,08681651;0,7816878;2917664;3181928
238;0,7934065;-0,009036083;3171,149;3,171149;0;0;0;0,08815628;0,08811745;0,7934065;2910305;3173944
241,5;0,8051253;-0,009183725;3159,774;3,159774;0;0;0;0,08945837;0,08941838;0,8051253;2899865;3162600
245;0,8167245;-0,009021627;3143,442;3,143442;0;0;0;0,09074716;0,09070601;0,8167245;2884877;3146295
248,5;0,8283236;-0,009241136;3117,627;3,117627;0;0;0;0,09203596;0,09199363;0,8283236;2861185;3120496
252;0,8399228;-0,008980777;3120,109;3,12011;0;0;0;0,09332476;0,09328124;0,8399228;2863464;3123021
255,5;0,8939127;-0,008885112;3108,681;3,108681;0;0;0;0,09932363;0,09927434;0,8939127;2852975;3111769
259;1,010442;-0,008668561;2992,397;2,992397;0;0;0;0,1122714;0,1122084;1,010442;2746256;2995757
262,5;1,127092;-0,008667507;2708,274;2,708275;0;0;0;0,1252324;0,1251541;1,127092;2485504;2711666
266;1,24398;-0,008464975;2417,723;2,417723;0;0;0;0,13822;0,1381246;1,24398;2218853;2421065
269,5;1,360809;-0,008560015;2194,007;2,194007;0;0;0;0,151201;0,1510868;1,360809;2013539;2197325
273;1,477279;-0,008052165;1985,426;1,985426;0;0;0;0,1641421;0,1640075;1,477279;1822114;1988685
276,5;1,593809;-0,008450521;1808,35;1,80835;0;0;0;0,1770898;0,1769332;1,593809;1659603;1811552
280;1,710458;-0,008496908;1653,717;1,653717;0;0;0;0,1900509;0,1898705;1,710458;1517690;1656860
283,5;1,827167;-0,008683871;1508,965;1,508965;0;0;0;0,2030185;0,2028127;1,827167;1384844;1512028
287;1,943996;-0,008613432;1372,153;1,372153;0;0;0;0,2159995;0,2157666;1,943996;1259286;1375117
290,5;2,060705;-0,008917644;1241,116;1,241116;0;0;0;0,2289672;0,2287055;2,060705;1139027;1243957
294;2,177234;-0,008737963;1122,19;1,12219;0;0;0;0,2419149;0,2416228;2,177234;1029883;1124904
297,5;2,293764;-0,008933131;995,8775;0,9958775;0;0;0;0,2548626;0,2545384;2,293764;913961,2;998415,6
301;2,410473;-0,008916268;866,1143;0,8661143;0;0;0;0,2678303;0,2674723;2,410473;794871,7;868434
304,5;2,527242;-0,008364771;760,303;0,760303;0;0;0;0,2808047;0,2804112;2,527242;697763,9;762437,9
308;2,644131;-0,009135172;677,3828;0,6773828;0;0;0;0,2937923;0,2933616;2,644131;621664,4;679372,9
311,5;2,76066;-0,009260963;602,7414;0,6027414;0;0;0;0,30674;0,3062705;2,76066;553162,6;604590,2
315;2,87713;-0,00919461;526,1319;0,5261319;0;0;0;0,3196811;0,3191712;2,87713;482854,7;527813,9
318,5;2,993779;-0,009063002;445,3475;0,4453475;0;0;0;0,3326421;0,3320901;2,993779;408715,3;446828,9
322;3,110548;-0,008828564;371,8444;0,3718444;0;0;0;0,3456165;0,3450206;3,110548;341258,2;373129,5
325,5;3,227377;-0,008783606;310,4098;0,3104098;0;0;0;0,3585974;0,357956;3,227377;284876,9;311522,9
329;3,344086;-0,008618318;259,471;0,259471;0;0;0;0,3715651;0,3708765;3,344086;238128,1;260435,1
332,5;3,460616;-0,008467722;216,9066;0,2169066;0;0;0;0,3845128;0,3837755;3,460616;199064,8;217740,6
336;3,577086;-0,00832446;185,4176;0,1854176;0;0;0;0,397454;0,3966662;3,577086;170166;186154,5
339,5;3,693795;-0,008486893;163,0941;0,1630941;0;0;0;0,4104216;0,4095817;3,693795;149678,8;163763,5
343;3,810564;-0,008538786;131,3818;0,1313818;0;0;0;0,423396;0,4225022;3,810564;120574,9;131938
346,5;3,927392;-0,008408861;108,1731;0,1081731;0;0;0;0,4363769;0,4354275;3,927392;99275,3;108645,2
347,5;3,960695;-0,008607583;101,4765;0,1014765;0;0;0;0,4400772;0,4391117;3,960695;93129,52;101923,1