Folder: scratch/scratch/src/apps/scratch/axel/tensile_tests (part 3)

File: pullout304.raw
"Prüfungstyp";"Manuell"
"Methodenname:";"C:\INSTRON\USER\TEMPLATE\Zugversuch Textilbeton.mtM"
"Name:";"Zugversuche Carbon"
"Prüfer";""
"Firma:";""
"Abteilung:";""
"Prüfdatum:";"01.01.97"
"Temperatur:";""
"Feuchtigkeit:";""
"Anmerkung 1:";""
"Anmerkung 2:";""
"Anmerkung 3:";""
"Geometrie:";"Rectangular"
"Probe";1
"Probenname:";"V19-Z-3-1"
"Breite:";100;"mm"
"Dicke:";10;"mm"
"Länge:";900;"mm"
"Durchmesser:";1.000000;"mm"
"Innendurchmesser:";0.500000;"mm"
"Außendurchm.:";1.000000;"mm"
"Wandstärke:";0.500000;"mm"
"Querschnitt:";1000;"mm*mm"
"Lineare Dichte:";1.000000;"den"
"Schlittengewicht:";9.806650;"N"
"Lade-Spannweite:";0.000000;"mm"
"Unterstütz.-Spannweite:";1.000000;"mm"
"Spannweitenverhältnis:";"2"
"Vorrichtungstyp:";"3-point"
"Kommentar:";""
"Eingefügt"
"Endbreite:";100;"mm"
"Enddicke:";10;"mm"
"Endlänge:";900;"mm"
"Enddurchmesser:";1.000000;"mm"
"Endinnendurchmesser:";0.500000;"mm"
"Endaußendurchmesser:";1.000000;"mm"
"Endwandstärke:";0.500000;"mm"
"Endquerschnitt:";1000;"mm*mm"
"Lineare Enddichte:";1.000000;"den"
"Zeit sec";"Verformung mm";"Dehnung 1 %";"Kraft N";"Spannung MPa";"Anz. der Zykl. ";"Zyklenzahl gesamt ";"Wiederholungswert ";"Dehnung [Trav.] %";"Tatsächliche dehnung %";"Zähigkeit gf/tex";"Tatsächliche spannung Pa"
0;0;-0,008381664;-45,13344;-0,04513344;0;0;0;0;0;-41420,97;-45133,44
1,5;0,005141897;-0,009106686;-27,87712;-0,02787712;0;0;0;0,0005713218;0,0005713202;-25584,07;-27877,28
3;0,009984845;-0,008978227;-18,38644;-0,01838644;0;0;0;0,001109427;0,001109421;-16874,05;-18386,64
4,5;0,01512674;-0,009061935;-10,08463;-0,01008463;0;0;0;0,001680749;0,001680735;-9255,112;-10084,8
6;0,01996969;-0,009012832;-6,505495;-0,006505495;0;0;0;0,002218854;0,00221883;-5970,383;-6505,639
7,5;0,02517138;-0,009176005;0,3669938;0,0003669938;0;0;0;0,00279682;0,002796781;336,8066;367,0041
9;0,02995454;-0,009092884;4,251088;0,004251088;0;0;0;0,003328282;0,003328226;3901,413;4251,23
10,5;0,03509643;-0,009310358;9,626076;0,009626076;0;0;0;0,003899603;0,003899527;8834,279;9626,451
12;0,03999917;-0,00924237;13,21911;0,01321911;0;0;0;0,004444352;0,004444254;12131,76;13219,69
13,5;0,04508128;-0,009362805;16,33798;0,01633798;0;0;0;0,005009031;0,005008905;14994,09;16338,8
15;0,04998401;-0,009303808;18,99582;0,01899582;0;0;0;0,005553779;0,005553625;17433,31;18996,87
16,5;0,05506612;-0,009445561;21,41912;0,02141912;0;0;0;0,006118458;0,006118271;19657,28;21420,43
18;0,06002865;-0,009412284;23,80948;0,02380948;0;0;0;0,00666985;0,006669627;21851,02;23811,07
19,5;0,06505097;-0,009385832;24,94666;0,02494666;0;0;0;0,007227886;0,007227624;22894,66;24948,47
21;0,07007328;-0,009287216;26,40819;0,02640819;0;0;0;0,007785921;0,007785617;24235,97;26410,25
22,5;0,0750358;-0,009464665;26,69118;0,02669118;0;0;0;0,008337311;0,008336964;24495,68;26693,4
24;0,08005813;-0,009326373;27,19005;0,02719005;0;0;0;0,008895348;0,008894952;24953,52;27192,47
25,5;0,08496087;-0,009442237;27,38837;0,02738837;0;0;0;0,009440097;0,009439651;25135,53;27390,95
27;0,09010277;-0,009349642;29,0419;0,0290419;0;0;0;0,01001142;0,01001092;26653,04;29044,81
28,5;0,0950055;-0,009412848;29,14747;0,02914747;0;0;0;0,01055617;0,01055561;26749,93;29150,54
30;0,1000876;-0,009275193;29,75744;0,02975744;0;0;0;0,01112085;0,01112023;27309,73;29760,75
31,5;0,1049306;-0,009405282;29,60249;0,02960249;0;0;0;0,01165895;0,01165827;27167,52;29605,94
33;0,1100725;-0,009252341;29,41156;0,02941156;0;0;0;0,01223027;0,01222952;26992,3;29415,16
34,5;0,1149752;-0,009360088;29,90158;0,02990158;0;0;0;0,01277502;0,01277421;27442,01;29905,4
36;0,1200573;-0,00920405;30,63802;0,03063802;0;0;0;0,0133397;0,01333881;28117,88;30642,11
37,5;0,12496;-0,009264929;30,54762;0,03054762;0;0;0;0,01388445;0,01388348;28034,91;30551,86
39;0,1301019;-0,0091334;32,55554;0,03255554;0;0;0;0,01445577;0,01445473;29877,68;32560,25
40,5;0,1349449;-0,009150365;32,0644;0,0320644;0;0;0;0,01499388;0,01499275;29426,93;32069,21
42;0,1400868;-0,009036982;33,48986;0,03348986;0;0;0;0,0155652;0,01556399;30735,14;33495,07
43,5;0,1449297;-0,009010336;32,54066;0,03254066;0;0;0;0,0161033;0,01610201;29864,02;32545,9
45;0,1501314;-0,008872578;34,1848;0,0341848;0;0;0;0,01668127;0,01667988;31372,91;34190,5
46,5;0,1549146;-0,008817806;32,92296;0,03292296;0;0;0;0,01721273;0,01721125;30214,87;32928,62
48;0,1600565;-0,008701307;34,85326;0,03485326;0;0;0;0,01778405;0,01778247;31986,39;34859,46
49,5;0,1649592;-0,008650534;33,91826;0,03391825;0;0;0;0,0183288;0,01832712;31128,3;33924,47
51;0,1700413;-0,00863374;35,33632;0,03533632;0;0;0;0,01889348;0,01889169;32429,72;35343
52,5;0,1749441;-0,008589462;36,07188;0,03607189;0;0;0;0,01943823;0,01943634;33104,78;36078,9
54;0,1800262;-0,008599411;36,46656;0,03646656;0;0;0;0,02000291;0,02000091;33466,99;36473,85
55,5;0,1849887;-0,008616197;36,67378;0,03667378;0;0;0;0,0205543;0,02055219;33657,16;36681,32
57;0,1900708;-0,008670157;37,02137;0,03702137;0;0;0;0,02111898;0,02111675;33976,16;37029,19
58,5;0,1950333;-0,008669455;37,20133;0,03720133;0;0;0;0,02167037;0,02166802;34141,32;37209,4
60;0,1999958;-0,008695251;37,93543;0,03793542;0;0;0;0,02222176;0,02221929;34815,03;37943,86
61,5;0,2050779;-0,008865421;37,99876;0,03799876;0;0;0;0,02278644;0,02278384;34873,16;38007,42
63;0,2099807;-0,008811697;38,98608;0,03898608;0;0;0;0,02333119;0,02332847;35779,27;38995,18
64,5;0,2150628;-0,008967533;38,68811;0,03868812;0;0;0;0,02389587;0,02389301;35505,81;38697,36
66;0,2199655;-0,008966952;39,44932;0,03944932;0;0;0;0,02444061;0,02443763;36204,4;39458,96
67,5;0,2250477;-0,00914779;39,35929;0,03935929;0;0;0;0,02500529;0,02500217;36121,78;39369,13
69;0,2299504;-0,009118099;39,01608;0,03901608;0;0;0;0,02555004;0,02554678;35806,8;39026,05
70,5;0,2350923;-0,009261143;39,74428;0,03974428;0;0;0;0,02612136;0,02611795;36475,09;39754,66
72;0,2399352;-0,009209481;39,39341;0,03939341;0;0;0;0,02665947;0,02665592;36153,09;39403,91
73,5;0,2450771;-0,009380185;40,51185;0,04051185;0;0;0;0,02723079;0,02722709;37179,53;40522,88
75;0,2499201;-0,009290989;39,8949;0,0398949;0;0;0;0,0277689;0,02776504;36613,32;39905,97
76,5;0,2551218;-0,009441877;40,58171;0,04058171;0;0;0;0,02834686;0,02834285;37243,64;40593,21
78;0,2599049;-0,009382365;40,12689;0,04012689;0;0;0;0,02887833;0,02887416;36826,23;40138,47
79,5;0,2651066;-0,009472623;40,06331;0,04006331;0;0;0;0,02945629;0,02945195;36767,88;40075,11
81;0,2699496;-0,009410895;39,32682;0,03932682;0;0;0;0,02999439;0,0299899;36091,98;39338,61
82,5;0,2750317;-0,009507401;40,21165;0,04021166;0;0;0;0,03055907;0,0305544;36904,03;40223,94
84;0,2799344;-0,009385348;40,58027;0,04058027;0;0;0;0,03110382;0,03109899;37242,32;40592,89
85,5;0,2850165;-0,00955679;40,43331;0,04043331;0;0;0;0,0316685;0,03166349;37107,46;40446,12
87;0,2899192;-0,009361843;38,26814;0,03826814;0;0;0;0,03221325;0,03220806;35120,38;38280,47
88,5;0,2950013;-0,009395977;31,57233;0,03157233;0;0;0;0,03277793;0,03277256;28975,34;31582,68
90;0,2999639;-0,009211559;31,59406;0,03159406;0;0;0;0,03332932;0,03332377;28995,28;31604,59
91,5;0,3049862;-0,009377864;30,89898;0,03089898;0;0;0;0,03388735;0,03388161;28357,37;30909,45
93;0,3100085;-0,009170266;31,12451;0,03112451;0;0;0;0,03444539;0,03443946;28564,35;31135,23
94,5;0,3150308;-0,00925384;30,62358;0,03062358;0;0;0;0,03500342;0,0349973;28104,63;30634,3
96;0,3200531;-0,009080002;31,20389;0,03120389;0;0;0;0,03556146;0,03555514;28637,2;31214,99
97,5;0,3250157;-0,009199881;30,43632;0,03043632;0;0;0;0,03611286;0,03610634;27932,77;30447,31
99;0,3300977;-0,008999621;31,00729;0,03100729;0;0;0;0,03667753;0,0366708;28456,77;31018,66
100,5;0,3350005;-0,00909355;30,06441;0,03006441;0;0;0;0,03722228;0,03721535;27591,45;30075,6
102;0,3400826;-0,008918571;29,29434;0,02929434;0;0;0;0,03778696;0,03777982;26884,73;29305,41
103,5;0,3449256;-0,009022465;29,29924;0,02929924;0;0;0;0,03832507;0,03831772;26889,22;29310,47
105;0,3500675;-0,008803308;29,6433;0,0296433;0;0;0;0,03889639;0,03888882;27204,98;29654,84
106,5;0,371233;-0,008903123;32,03602;0,03203602;0;0;0;0,04124811;0,0412396;29400,88;32049,23
108;0,8848247;-0,008724244;44,13202;0,04413202;0;0;0;0,09831385;0,09826556;40501,92;44175,4
109,5;1,384665;-0,008817985;7,2039;0,0072039;0;0;0;0,1538516;0,1537334;6611,34;7214,983
111;1,884625;-0,008654534;7,214961;0,007214961;0;0;0;0,2094027;0,2091838;6621,492;7230,069
112,5;2,384644;-0,008803487;7,992954;0,007992955;0;0;0;0,2649604;0,26461;7335,491;8014,133
114;2,884664;-0,008623236;7,548164;0,007548164;0;0;0;0,3205182;0,3200056;6927,286;7572,357
115,5;3,384803;-0,008760527;7,602882;0,007602882;0;0;0;0,3760892;0,3753837;6977,503;7631,475
117;3,884703;-0,008702835;6,602198;0,006602198;0;0;0;0,4316337;0,4307048;6059,132;6630,695
118,5;4,384782;-0,008856033;7,730573;0,007730572;0;0;0;0,487198;0,486015;7094,691;7768,236
120;4,884622;-0,008688791;6,90026;0,00690026;0;0;0;0,5427358;0,5412683;6332,676;6937,71
121,5;5,384641;-0,008796743;7,628233;0,007628233;0;0;0;0,5982935;0,5965108;7000,77;7673,873
123;5,884721;-0,008589493;7,727783;0,007727783;0;0;0;0,6538579;0,6517295;7092,131;7778,312
124,5;6,3848;-0,00869047;7,482433;0,007482433;0;0;0;0,7094222;0,7069177;6866,963;7535,515
125,556;6,736781;-0,008166392;6,750544;0,006750544;0;0;0;0,7485312;0,7457436;6195,275;6801,074