Folder: scratch/scratch/KRAMS/src/apps/scratch/axel/tensile_tests (part 3)

File: pullout156.raw
"Prüfungstyp";"Manuell"
"Methodenname:";"C:\INSTRON\USER\TEMPLATE\Zugversuch Textilbeton.mtM"
"Name:";"Zugversuche Carbon"
"Prüfer";""
"Firma:";""
"Abteilung:";""
"Prüfdatum:";"01.01.97"
"Temperatur:";""
"Feuchtigkeit:";""
"Anmerkung 1:";""
"Anmerkung 2:";""
"Anmerkung 3:";""
"Geometrie:";"Rectangular"
"Probe";1
"Probenname:";"V19-Z-3-1"
"Breite:";100;"mm"
"Dicke:";10;"mm"
"Länge:";900;"mm"
"Durchmesser:";1.000000;"mm"
"Innendurchmesser:";0.500000;"mm"
"Außendurchm.:";1.000000;"mm"
"Wandstärke:";0.500000;"mm"
"Querschnitt:";1000;"mm*mm"
"Lineare Dichte:";1.000000;"den"
"Schlittengewicht:";9.806650;"N"
"Lade-Spannweite:";0.000000;"mm"
"Unterstütz.-Spannweite:";1.000000;"mm"
"Spannweitenverhältnis:";"2"
"Vorrichtungstyp:";"3-point"
"Kommentar:";""
"Eingefügt"
"Endbreite:";100;"mm"
"Enddicke:";10;"mm"
"Endlänge:";900;"mm"
"Enddurchmesser:";1.000000;"mm"
"Endinnendurchmesser:";0.500000;"mm"
"Endaußendurchmesser:";1.000000;"mm"
"Endwandstärke:";0.500000;"mm"
"Endquerschnitt:";1000;"mm*mm"
"Lineare Enddichte:";1.000000;"den"
"Zeit sec";"Verformung mm";"Dehnung 1 %";"Kraft N";"Spannung MPa";"Anz. der Zykl. ";"Zyklenzahl gesamt ";"Wiederholungswert ";"Dehnung [Trav.] %";"Tatsächliche dehnung %";"Zähigkeit gf/tex";"Tatsächliche spannung Pa"
0;-6,294459;-0,007998545;-36,16786;-0,03616786;0;0;0;-0,6993844;-0,7018415;-33192,86;-35914,91
1,5;-6,289377;-0,008554153;-25,07;-0,02507;0;0;0;-0,6988197;-0,7012729;-23007,86;-24894,8
3;-6,284355;-0,008605798;-18,41966;-0,01841966;0;0;0;-0,6982617;-0,7007109;-16904,54;-18291,04
4,5;-6,279512;-0,008516917;-14,4854;-0,0144854;0;0;0;-0,6977235;-0,700169;-13293,9;-14384,33
6;-6,27437;-0,008662139;-9,868095;-0,009868095;0;0;0;-0,6971522;-0,6995937;-9056,391;-9799,299
7,5;-6,269527;-0,008654143;-7,14174;-0,00714174;0;0;0;-0,6966141;-0,6990518;-6554,293;-7091,99
9;-6,264325;-0,008789921;-3,462373;-0,003462373;0;0;0;-0,6960362;-0,6984698;-3177,574;-3438,273
10,5;-6,259482;-0,008791016;-1,229018;-0,001229018;0;0;0;-0,695498;-0,6979279;-1127,925;-1220,471
12;-6,25434;-0,008891615;2,613034;0,002613034;0;0;0;-0,6949267;-0,6973526;2398,098;2594,876
13,5;-6,249498;-0,008972563;3,871401;0,003871401;0;0;0;-0,6943886;-0,6968107;3552,957;3844,518
15;-6,244296;-0,009019604;7,571715;0,007571715;0;0;0;-0,6938107;-0,6962288;6948,9;7519,182
16,5;-6,239513;-0,009023806;9,403005;0,009403004;0;0;0;-0,6932792;-0,6956935;8629,557;9337,815
18;-6,234311;-0,009097573;12,53294;0,01253294;0;0;0;-0,6927012;-0,6951115;11502,04;12446,12
19,5;-6,229528;-0,009096073;14,41327;0,01441327;0;0;0;-0,6921698;-0,6945764;13227,7;14313,51
21;-6,224386;-0,009141672;16,52349;0,01652349;0;0;0;-0,6915984;-0,694001;15164,34;16409,21
22,5;-6,219483;-0,009100398;17,68915;0,01768915;0;0;0;-0,6910537;-0,6934525;16234,13;17566,91
24;-6,214401;-0,009071451;19,26408;0,01926408;0;0;0;-0,690489;-0,6928839;17679,51;19131,07
25,5;-6,209439;-0,009050215;20,0801;0,0200801;0;0;0;-0,6899376;-0,6923287;18428,41;19941,56
27;-6,204416;-0,009012828;20,94179;0,02094179;0;0;0;-0,6893796;-0,6917668;19219,21;20797,42
28,5;-6,199454;-0,009012446;22,62943;0,02262943;0;0;0;-0,6888282;-0,6912116;20768,04;22473,55
30;-6,194431;-0,009025068;23,99513;0,02399513;0;0;0;-0,6882702;-0,6906496;22021,4;23829,98
31,5;-6,189409;-0,008950608;24,89866;0,02489866;0;0;0;-0,6877121;-0,6900877;22850,61;24727,43
33;-6,184387;-0,008950635;26,09419;0,02609419;0;0;0;-0,6871541;-0,6895259;23947,8;25914,88
34,5;-6,179364;-0,008978401;26,83019;0,02683019;0;0;0;-0,686596;-0,6889639;24623,26;26645,97
36;-6,174462;-0,008957143;26,49674;0,02649674;0;0;0;-0,6860513;-0,6884155;24317,24;26314,96
37,5;-6,169379;-0,008890781;27,77566;0,02777566;0;0;0;-0,6854866;-0,6878468;25490,96;27585,26
39;-6,164477;-0,008891837;27,325;0,027325;0;0;0;-0,6849419;-0,6872984;25077,37;27137,84
40,5;-6,159395;-0,008812107;27,77121;0,02777121;0;0;0;-0,6843772;-0,6867298;25486,88;27581,15
42;-6,154492;-0,008949261;28,86694;0,02886694;0;0;0;-0,6838325;-0,6861813;26492,47;28669,54
43,5;-6,14935;-0,008761322;29,87056;0,02987056;0;0;0;-0,6832612;-0,6856061;27413,54;29666,46
45;-6,144507;-0,008907114;13,34823;0,01334823;0;0;0;-0,682723;-0,6850642;12250,26;13257,1
46,5;-6,139365;-0,008826273;15,79962;0,01579962;0;0;0;-0,6821517;-0,684489;14500,02;15691,85
48;-6,134523;-0,00892279;16,28714;0,01628714;0;0;0;-0,6816136;-0,6839472;14947,44;16176,13
49,5;-6,129381;-0,008789212;18,69781;0,01869781;0;0;0;-0,6810423;-0,683372;17159,82;18570,47
51;-6,124537;-0,008913174;17,25826;0,01725826;0;0;0;-0,6805041;-0,6828301;15838,68;17140,82
52,5;-6,119336;-0,008803987;19,28576;0,01928576;0;0;0;-0,6799262;-0,6822482;17699,41;19154,63
54;-6,114553;-0,008918962;19,83637;0,01983637;0;0;0;-0,6793948;-0,6817131;18204,72;19701,6
55,5;-6,109351;-0,008700772;19,88384;0,01988384;0;0;0;-0,6788168;-0,6811313;18248,29;19748,87
57;-6,104568;-0,008903851;20,00977;0,02000977;0;0;0;-0,6782853;-0,6805961;18363,86;19874,05
58,5;-6,099366;-0,008695342;20,94404;0,02094404;0;0;0;-0,6777073;-0,6800142;19221,28;20802,1
60;-6,094523;-0,00881383;20,19169;0,02019169;0;0;0;-0,6771693;-0,6794724;18530,82;20054,96
61,5;-6,089381;-0,008677674;21,1402;0,0211402;0;0;0;-0,676598;-0,6788972;19401,31;20997,17
63;-6,084479;-0,0087491;21,02925;0,02102925;0;0;0;-0,6760532;-0,6783488;19299,48;20887,08
64,5;-6,079456;-0,00872038;20,6265;0,0206265;0;0;0;-0,6754951;-0,6777869;18929,86;20487,17
66;-6,074434;-0,008784861;21,15396;0,02115396;0;0;0;-0,6749371;-0,6772251;19413,93;21011,18
67,5;-6,069412;-0,008641199;21,93733;0,02193733;0;0;0;-0,6743791;-0,6766633;20132,87;21789,39
69;-6,064449;-0,008705217;21,54266;0,02154266;0;0;0;-0,6738276;-0,6761081;19770,66;21397,5
70,5;-6,059486;-0,008562541;21,49655;0,02149655;0;0;0;-0,6732762;-0,675553;19728,35;21351,82
72;-6,054405;-0,008702818;22,04726;0,02204726;0;0;0;-0,6727117;-0,6749845;20233,75;21898,94
73,5;-6,049501;-0,008508815;22,45676;0,02245676;0;0;0;-0,6721668;-0,674436;20609,57;22305,82
75;-6,044419;-0,008728546;23,02846;0,02302846;0;0;0;-0,6716021;-0,6738675;21134,25;22873,8
76,5;-6,039517;-0,008322611;22,74939;0,02274939;0;0;0;-0,6710575;-0,6733192;20878,13;22596,73
78;-6,034435;-0,008741306;23,25913;0,02325913;0;0;0;-0,6704928;-0,6727507;21345,94;23103,18
79,5;-6,029532;-0,008181769;23,28624;0,02328624;0;0;0;-0,669948;-0,6722022;21370,82;23130,24
81;-6,02439;-0,008698239;23,87209;0,02387209;0;0;0;-0,6693766;-0,671627;21908,48;23712,29
82,5;-6,019547;-0,008638485;24,34003;0,02434003;0;0;0;-0,6688386;-0,6710853;22337,93;24177,23
84;-6,014346;-0,008746057;24,28624;0,02428624;0;0;0;-0,6682606;-0,6705035;22288,57;24123,95
85,5;-6,009562;-0,008645411;23,39896;0,02339896;0;0;0;-0,6677291;-0,6699684;21474,27;23242,72
87;-6,004361;-0,008718755;24,5102;0,0245102;0;0;0;-0,6671512;-0,6693866;22494,11;24346,68
88,5;-5,999517;-0,008664971;23,89651;0,02389651;0;0;0;-0,666613;-0,6688448;21930,89;23737,21
90;-5,994376;-0,008697514;24,78051;0,02478051;0;0;0;-0,6660417;-0,6682697;22742,18;24615,46
91,5;-5,989533;-0,008598032;23,80978;0,02380978;0;0;0;-0,6655037;-0,667728;21851,3;23651,33
93;-5,53298;-0,008710977;34,35953;0,03435953;0;0;0;-0,6147756;-0,6166731;31533,28;34148,3
94,5;-5,03314;-0,008644016;35,70096;0,03570095;0;0;0;-0,5592378;-0,5608074;32764,36;35501,3
96;-4,533061;-0,008649474;29,19079;0,02919079;0;0;0;-0,5036734;-0,5049462;26789,69;29043,76
97,5;-4,033041;-0,008464383;26,79436;0,02679436;0;0;0;-0,4481157;-0,4491227;24590,38;26674,29
99;-3,533021;-0,008619836;22,63996;0,02263996;0;0;0;-0,3925579;-0,3933305;20777,7;22551,08
100,5;-3,032882;-0,008450871;21,13125;0,02113125;0;0;0;-0,3369869;-0,337556;19393,09;21060,04
102;-2,532922;-0,008602215;22,85481;0,02285481;0;0;0;-0,2814358;-0,2818326;20974,88;22790,49
103,5;-2,033082;-0,008452162;22,64867;0,02264867;0;0;0;-0,225898;-0,2261536;20785,69;22597,5
105;-1,533122;-0,008655171;21,85119;0,02185119;0;0;0;-0,1703469;-0,1704922;20053,81;21813,97
106,5;-1,032983;-0,008377227;22,51187;0,02251187;0;0;0;-0,1147759;-0,1148418;20660,15;22486,03
108;-0,5329636;-0,008616097;23,79476;0,02379476;0;0;0;-0,05921818;-0,05923572;21837,51;23780,67
109,5;-0,03300381;-0,008366238;22,82222;0,02282222;0;0;0;-0,003667089;-0,003667157;20944,97;22821,38
111;0,4670755;-0,008622982;23,03595;0,02303595;0;0;0;0,05189728;0,05188382;21141,12;23047,91
112,5;0,9670353;-0,008340872;22,52969;0,02252969;0;0;0;0,1074484;0,1073907;20676,5;22553,89
114;1,466875;-0,008623765;15,82698;0,01582698;0;0;0;0,1629861;0,1628535;14525,13;15852,78
115,5;1,967015;-0,008418803;21,05294;0,02105294;0;0;0;0,2185572;0,2183187;19321,22;21098,95
117;2,467034;-0,008605547;21,76745;0,02176745;0;0;0;0,2741149;0,2737399;19976,96;21827,12
118,5;2,967054;-0,008379327;21,67647;0,02167647;0;0;0;0,3296726;0,3291304;19893,46;21747,93
120;3,466893;-0,008621861;20,88702;0,02088702;0;0;0;0,3852104;0,3844703;19168,95;20967,48
121,5;3,967033;-0,008461325;19,77911;0,01977911;0;0;0;0,4407814;0,4398128;18152,17;19866,29
123;4,466933;-0,00860914;21,61974;0,02161974;0;0;0;0,4963259;0,4950982;19841,4;21727,05
124,5;4,966892;-0,008447283;21,51677;0,02151677;0;0;0;0,5518769;0,5503596;19746,9;21635,51
126;5,466972;-0,008624661;20,85095;0,02085095;0;0;0;0,6074413;0,6056038;19135,85;20977,61
126,092;5,497584;-0,008896524;21,07506;0,02107506;0;0;0;0,6108426;0,6089846;19341,52;21203,8