Folder: scratch/scratch/KRAMS/src/apps/scratch/axel/tensile_tests

File: pullout02.raw
"Prüfungstyp";"Manuell"
"Methodenname:";"C:\INSTRON\USER\TEMPLATE\Zugversuch Textilbeton.mtM"
"Name:";"Zugversuche Carbon"
"Prüfer";""
"Firma:";""
"Abteilung:";""
"Prüfdatum:";"01.01.97"
"Temperatur:";""
"Feuchtigkeit:";""
"Anmerkung 1:";""
"Anmerkung 2:";""
"Anmerkung 3:";""
"Geometrie:";"Rectangular"
"Probe";1
"Probenname:";"V19-Z-3-1"
"Breite:";100;"mm"
"Dicke:";10;"mm"
"Länge:";900;"mm"
"Durchmesser:";1.000000;"mm"
"Innendurchmesser:";0.500000;"mm"
"Außendurchm.:";1.000000;"mm"
"Wandstärke:";0.500000;"mm"
"Querschnitt:";1000;"mm*mm"
"Lineare Dichte:";1.000000;"den"
"Schlittengewicht:";9.806650;"N"
"Lade-Spannweite:";0.000000;"mm"
"Unterstütz.-Spannweite:";1.000000;"mm"
"Spannweitenverhältnis:";"2"
"Vorrichtungstyp:";"3-point"
"Kommentar:";""
"Eingefügt"
"Endbreite:";100;"mm"
"Enddicke:";10;"mm"
"Endlänge:";900;"mm"
"Enddurchmesser:";1.000000;"mm"
"Endinnendurchmesser:";0.500000;"mm"
"Endaußendurchmesser:";1.000000;"mm"
"Endwandstärke:";0.500000;"mm"
"Endquerschnitt:";1000;"mm*mm"
"Lineare Enddichte:";1.000000;"den"
"Zeit sec";"Verformung mm";"Dehnung 1 %";"Kraft N";"Spannung MPa";"Anz. der Zykl. ";"Zyklenzahl gesamt ";"Wiederholungswert ";"Dehnung [Trav.] %";"Tatsächliche dehnung %";"Zähigkeit gf/tex";"Tatsächliche spannung Pa"
0;0;-0,008054383;-44,83726;-0,04483726;0;0;0;0;0;-41149,15;-44837,26
2;0,006696423;-0,008488692;-37,41436;-0,03741436;0;0;0;0,0007440471;0,0007440443;-34336,82;-37414,64
4;0,01327327;-0,008617355;-32,20274;-0,03220274;0;0;0;0,001474808;0,001474797;-29553,89;-32203,22
6;0,0199099;-0,008713106;-28,32281;-0,02832281;0;0;0;0,002212211;0,002212187;-25993,1;-28323,43
8;0,0267259;-0,008623558;-23,15093;-0,02315093;0;0;0;0,002969545;0,002969501;-21246,64;-23151,62
10;0,03324296;-0,008863262;-19,95389;-0,0199539;0;0;0;0,003693662;0,003693593;-18312,58;-19954,63
12;0,03993938;-0,008727813;-15,75593;-0,01575593;0;0;0;0,004437709;0,00443761;-14459,92;-15756,63
14;0,04669559;-0,008991291;-13,30855;-0,01330855;0;0;0;0,005188399;0,005188264;-12213,85;-13309,24
16;0,05321265;-0,008887913;-10,45994;-0,01045994;0;0;0;0,005912516;0,005912342;-9599,55;-10460,55
18;0,06002865;-0,008964358;-6,492688;-0,006492688;0;0;0;0,00666985;0,006669627;-5958,629;-6493,121
20;0,06660549;-0,009148554;-4,229087;-0,004229087;0;0;0;0,00740061;0,007400336;-3881,221;-4229,4
22;0,07324213;-0,008918066;-1,417768;-0,001417768;0;0;0;0,008138014;0,008137683;-1301,149;-1417,883
24;0,07999834;-0,009253816;0,5187489;0,0005187489;0;0;0;0,008888705;0,00888831;476,0789;518,795
26;0,08663497;-0,00898653;3,450956;0,003450956;0;0;0;0,009626108;0,009625645;3167,096;3451,288
28;0,09321181;-0,009332062;5,194883;0,005194883;0;0;0;0,01035687;0,01035633;4767,576;5195,421
30;0,1000876;-0,009202646;8,537377;0,008537377;0;0;0;0,01112085;0,01112023;7835,132;8538,327
32;0,1066047;-0,00925866;9,902341;0,009902341;0;0;0;0,01184496;0,01184426;9087,82;9903,514
34;0,1133011;-0,009341378;11,75756;0,01175756;0;0;0;0,01258901;0,01258822;10790,44;11759,04
36;0,1200573;-0,009140061;14,45573;0,01445573;0;0;0;0,0133397;0,01333881;13266,67;14457,66
38;0,1265146;-0,009448015;14,54749;0,01454749;0;0;0;0,01405717;0,01405618;13350,88;14549,54
40;0,1333306;-0,009148974;17,40609;0,01740609;0;0;0;0,01481451;0,01481341;15974,35;17408,67
42;0,1399672;-0,009415228;18,8755;0,0188755;0;0;0;0,01555191;0,0155507;17322,89;18878,43
44;0,1464843;-0,009132597;20,11463;0,02011463;0;0;0;0,01627603;0,0162747;18460,09;20117,9
46;0,15336;-0,009453429;22,34456;0,02234456;0;0;0;0,01704;0,01703855;20506,6;22348,37
48;0,1599967;-0,009145284;22,55467;0,02255467;0;0;0;0,01777741;0,01777583;20699,43;22558,68
50;0,1665735;-0,009489938;23,8171;0,0238171;0;0;0;0,01850817;0,01850646;21858,01;23821,51
52;0,1733895;-0,009163929;26,16327;0,02616327;0;0;0;0,0192655;0,01926365;24011,2;26168,31
54;0,1799664;-0,009390422;25,87387;0,02587387;0;0;0;0,01999626;0,01999426;23745,6;25879,04
56;0,186603;-0,009112566;27,01144;0,02701144;0;0;0;0,02073367;0,02073152;24789,61;27017,04
58;0,1933592;-0,00935178;27,60952;0,02760952;0;0;0;0,02148436;0,02148205;25338,49;27615,46
60;0,1998763;-0,009224176;27,4762;0,0274762;0;0;0;0,02220847;0,02220601;25216,13;27482,3
62;0,2066923;-0,00926851;27,52764;0,02752764;0;0;0;0,02296581;0,02296317;25263,35;27533,96
64;0,2133289;-0,009386703;27,79849;0,02779849;0;0;0;0,02370321;0,0237004;25511,92;27805,08
66;0,2199058;-0,009175192;27,32913;0,02732913;0;0;0;0,02443397;0,02443099;25081,16;27335,81
68;0,2267218;-0,00943888;29,20241;0,02920241;0;0;0;0,02519131;0,02518813;26800,36;29209,77
70;0,2332986;-0,009295229;28,05798;0,02805799;0;0;0;0,02592207;0,02591871;25750,06;28065,26
72;0,2398754;-0,009215798;28,06626;0,02806626;0;0;0;0,02665283;0,02664927;25757,65;28073,74
74;0,2466914;-0,009436765;28,48496;0,02848496;0;0;0;0,02741016;0,0274064;26141,92;28492,77
76;0,2533281;-0,00940076;27,29683;0,02729683;0;0;0;0,02814756;0,0281436;25051,52;27304,51
78;0,2598451;-0,009264066;27,56528;0,02756528;0;0;0;0,02887168;0,02886751;25297,89;27573,24
80;0,2667807;-0,009470597;28,57061;0,02857061;0;0;0;0,0296423;0,02963791;26220,52;28579,08
82;0,273238;-0,009373642;27,38737;0,02738737;0;0;0;0,03035977;0,03035517;25134,61;27395,69
84;0,2799344;-0,009276168;26,8375;0,0268375;0;0;0;0,03110382;0,03109899;24629,97;26845,85
86;0,2866906;-0,009500706;27,849;0,027849;0;0;0;0,03185451;0,03184944;25558,27;27857,87
88;0,2932077;-0,009461725;27,44645;0,02744645;0;0;0;0,03257863;0,03257333;25188,83;27455,39
90;0,3000237;-0,009396599;27,56048;0,02756048;0;0;0;0,03333597;0,03333041;25293,48;27569,67
92;0,3066005;-0,009483392;27,64809;0,02764809;0;0;0;0,03406672;0,03406092;25373,88;27657,51
94;0,3132371;-0,009340468;26,99431;0,02699431;0;0;0;0,03480412;0,03479807;24773,88;27003,71
96;0,3199934;-0,009401961;28,09851;0,02809851;0;0;0;0,03555482;0,0355485;25787,25;28108,5
98;0,3266898;-0,00943272;27,66674;0,02766674;0;0;0;0,03629886;0,03629227;25391;27676,78
100;0,3332068;-0,009532102;26,49505;0,02649505;0;0;0;0,03702298;0,03701613;24315,69;26504,86
102;0,3400228;-0,009294606;28,31826;0,02831826;0;0;0;0,03778031;0,03777318;25988,93;28328,96
104;0,9557948;-0,009322618;27,80529;0,02780529;0;0;0;0,1061994;0,1061431;25518,16;27834,82
106;1,622507;-0,009247924;21,10303;0,02110303;0;0;0;0,1802786;0,1801163;19367,19;21141,07
108;2,2891;-0,009171584;18,24536;0,01824536;0;0;0;0,2543445;0,2540216;16744,58;18291,77
110;2,955873;-0,00927223;16,4406;0,0164406;0;0;0;0,3284303;0,3278922;15088,27;16494,59
112;3,622406;-0,009313695;15,19417;0,01519417;0;0;0;0,4024896;0,4016817;13944,37;15255,33
114;4,289179;-0,009258866;13,20113;0,01320113;0;0;0;0,4765754;0,4754434;12115,26;13264,04
116;4,955831;-0,009318784;13,08827;0,01308827;0;0;0;0,5506479;0,5491374;12011,69;13160,34
118;5,622484;-0,009255463;12,09923;0,01209923;0;0;0;0,6247205;0,6227772;11104,01;12174,82
120;6,289017;-0,009384437;11,7143;0,0117143;0;0;0;0,6987797;0,6963496;10750,73;11796,16
122;6,95573;-0,009083232;11,19825;0,01119825;0;0;0;0,7728589;0,7698877;10277,13;11284,79
124;7,622323;-0,009277873;8,879487;0,008879487;0;0;0;0,8469248;0,8433585;8149,101;8954,69
126;8,289095;-0,00941748;9,229574;0,009229574;0;0;0;0,9210106;0,9167951;8470,392;9314,579
128;8,955748;-0,008727145;9,493131;0,009493131;0;0;0;0,9950832;0,9901648;8712,27;9587,596
130;9,62252;-0,009263512;10,79868;0,01079868;0;0;0;1,069169;1,063494;9910,429;10914,13
132;10,28911;-0,009298175;10,4227;0,0104227;0;0;0;1,143235;1,136749;9565,377;10541,86
134;10,95577;-0,008609461;9,592093;0,009592093;0;0;0;1,217307;1,209958;8803,092;9708,858
136;11,62242;-0,009490519;10,27993;0,01027993;0;0;0;1,29138;1,283113;9434,354;10412,69
138;12,28907;-0,009115179;8,78537;0,008785371;0;0;0;1,365452;1,356214;8062,726;8905,33
140;12,95584;-0,008670802;8,03826;0,00803826;0;0;0;1,439538;1,429275;7377,069;8153,974
142;13,6225;-0,00922301;8,531896;0,008531895;0;0;0;1,513611;1,50227;7830,101;8661,035
144;14,28927;-0,00916274;7,885607;0,007885607;0;0;0;1,587697;1,575225;7236,973;8010,807
146;14,95586;-0,009304856;8,246902;0,008246902;0;0;0;1,661763;1,648106;7568,55;8383,946
148;15,62252;-0,009305744;7,99984;0,007999839;0;0;0;1,735835;1,720942;7341,81;8138,704
150;16,28923;-0,009102536;8,534882;0,008534881;0;0;0;1,809914;1,79373;7832,841;8689,356
152;16,95588;-0,009187459;8,3188;0,0083188;0;0;0;1,883987;1,86646;7634,533;8475,525
154;17,62241;-0,009309852;6,749304;0,006749304;0;0;0;1,958046;1,939123;6194,137;6881,459
156;18,28913;-0,009108034;7,787036;0,007787036;0;0;0;2,032125;2,011753;7146,51;7945,278
158;18,95572;-0,009154245;7,828834;0,007828834;0;0;0;2,106191;2,084318;7184,87;7993,724
160;19,62243;-0,009227649;7,275879;0,007275879;0;0;0;2,18027;2,156842;6677,398;7434,513
162;20,28921;-0,009175809;7,231586;0,007231586;0;0;0;2,254356;2,229321;6636,749;7394,612
164;20,95586;-0,009327852;8,247735;0,008247735;0;0;0;2,328429;2,301734;7569,314;8439,777
166;21,62245;-0,009210876;7,758111;0,007758111;0;0;0;2,402494;2,374089;7119,965;7944,5
168;22,28916;-0,009304955;7,253659;0,007253659;0;0;0;2,476574;2,446404;6657,006;7433,301
170;22,9557;-0,009334698;8,301278;0,008301278;0;0;0;2,550633;2,518647;7618,453;8513,013
172;23,62235;-0,009347817;7,214015;0,007214015;0;0;0;2,624706;2,590851;6620,624;7403,362
172,724;23,86372;-0,008664704;7,667665;0,007667665;0;0;0;2,651524;2,616981;7036,958;7870,975

File: pullout151.raw
"Prüfungstyp";"Manuell"
"Methodenname:";"C:\INSTRON\USER\TEMPLATE\Zugversuch Textilbeton.mtM"
"Name:";"Zugversuche Carbon"
"Prüfer";""
"Firma:";""
"Abteilung:";""
"Prüfdatum:";"01.01.97"
"Temperatur:";""
"Feuchtigkeit:";""
"Anmerkung 1:";""
"Anmerkung 2:";""
"Anmerkung 3:";""
"Geometrie:";"Rectangular"
"Probe";1
"Probenname:";"V19-Z-3-1"
"Breite:";100;"mm"
"Dicke:";10;"mm"
"Länge:";900;"mm"
"Durchmesser:";1.000000;"mm"
"Innendurchmesser:";0.500000;"mm"
"Außendurchm.:";1.000000;"mm"
"Wandstärke:";0.500000;"mm"
"Querschnitt:";1000;"mm*mm"
"Lineare Dichte:";1.000000;"den"
"Schlittengewicht:";9.806650;"N"
"Lade-Spannweite:";0.000000;"mm"
"Unterstütz.-Spannweite:";1.000000;"mm"
"Spannweitenverhältnis:";"2"
"Vorrichtungstyp:";"3-point"
"Kommentar:";""
"Eingefügt"
"Endbreite:";100;"mm"
"Enddicke:";10;"mm"
"Endlänge:";900;"mm"
"Enddurchmesser:";1.000000;"mm"
"Endinnendurchmesser:";0.500000;"mm"
"Endaußendurchmesser:";1.000000;"mm"
"Endwandstärke:";0.500000;"mm"
"Endquerschnitt:";1000;"mm*mm"
"Lineare Enddichte:";1.000000;"den"
"Zeit sec";"Verformung mm";"Dehnung 1 %";"Kraft N";"Spannung MPa";"Anz. der Zykl. ";"Zyklenzahl gesamt ";"Wiederholungswert ";"Dehnung [Trav.] %";"Tatsächliche dehnung %";"Zähigkeit gf/tex";"Tatsächliche spannung Pa"
0;0;-0,007846539;-13,11626;-0,01311626;0;0;0;0;0;-12037,37;-13116,26
7;0,0233179;-0,008474897;-0,5590702;-0,0005590702;0;0;0;0,002590878;0,002590844;-513,0837;-559,0847
14;0,04669559;-0,008589514;4,361925;0,004361925;0;0;0;0,005188399;0,005188264;4003,133;4362,151
21;0,07007328;-0,008959462;7,874201;0,007874201;0;0;0;0,007785921;0,007785617;7226,506;7874,814
28;0,09321181;-0,009088148;9,228446;0,009228447;0;0;0;0,01035687;0,01035633;8469,356;9229,402
35;0,1165895;-0,009026257;11,1378;0,0111378;0;0;0;0,01295439;0,01295355;10221,66;11139,24
42;0,140027;-0,009021996;13,43409;0,01343409;0;0;0;0,01555855;0,01555734;12329,07;13436,18
49;0,1633449;-0,009088534;15,27028;0,01527028;0;0;0;0,01814943;0,01814778;14014,21;15273,05
56;0,1865432;-0,009112046;15,9474;0,0159474;0;0;0;0,02072702;0,02072487;14635,64;15950,71
63;0,2099209;-0,009050967;18,50808;0,01850808;0;0;0;0,02332455;0,02332182;16985,69;18512,4
70;0,2332986;-0,009091744;20,12853;0,02012853;0;0;0;0,02592207;0,02591871;18472,85;20133,75
77;0,2567361;-0,009056793;21,82102;0,02182102;0;0;0;0,02852623;0,02852216;20026,12;21827,24
84;0,2799942;-0,009003373;20,85156;0,02085156;0;0;0;0,03111046;0,03110562;19136,4;20858,05
91;0,3032523;-0,009018742;22,01767;0,02201767;0;0;0;0,0336947;0,03368903;20206,6;22025,09
98;0,32663;-0,009019225;21,39331;0,02139331;0;0;0;0,03629222;0,03628564;19633,59;21401,07
105;0,3501273;-0,009124507;21,24168;0,02124168;0;0;0;0,03890303;0,03889546;19494,44;21249,95
112;0,3733854;-0,009204173;21,76581;0,02176581;0;0;0;0,04148726;0,04147866;19975,45;21774,84
119;0,3965239;-0,009106719;20,10778;0,02010778;0;0;0;0,04405821;0,04404851;18453,8;20116,64
126;0,4200212;-0,008866652;21,63596;0,02163596;0;0;0;0,04666902;0,04665813;19856,29;21646,06
133;0,4433989;-0,008701782;22,16763;0,02216763;0;0;0;0,04926654;0,04925441;20344,22;22178,55
140;0,4667168;-0,0085002;21,4652;0,0214652;0;0;0;0,05185742;0,05184398;19699,57;21476,33
147;0,4899151;-0,00844175;21,7059;0,0217059;0;0;0;0,05443501;0,0544202;19920,47;21717,72
154;0,5132928;-0,008409581;22,53783;0,02253783;0;0;0;0,05703253;0,05701627;20683,97;22550,69
161;0,5366107;-0,008541071;21,89952;0,02189952;0;0;0;0,05962341;0,05960564;20098,17;21912,58
168;0,5599883;-0,008555115;22,46217;0,02246217;0;0;0;0,06222093;0,06220158;20614,53;22476,14
175;0,5832465;-0,008584906;22,02981;0,02202981;0;0;0;0,06480516;0,06478418;20217,74;22044,08
182;0,6065644;-0,008599983;22,38709;0,02238709;0;0;0;0,06739604;0,06737334;20545,63;22402,18
189;0,6300019;-0,00848658;23,12921;0,02312921;0;0;0;0,07000021;0,06997572;21226,71;23145,4
196;0,6969661;-0,008653777;25,19611;0,02519611;0;0;0;0,07744068;0,07741071;23123,59;25215,62
203;0,813436;-0,008864776;24,38527;0,02438527;0;0;0;0,09038178;0,09034096;22379,45;24407,31
210;0,9298462;-0,009157904;22,70424;0,02270424;0;0;0;0,1033162;0,1032629;20836,69;22727,69
217;1,046555;-0,009184947;22,72117;0,02272117;0;0;0;0,1162839;0,1162164;20852,23;22747,59
224;1,163324;-0,009217791;20,62153;0,02062153;0;0;0;0,1292582;0,1291748;18925,29;20648,18
231;1,280153;-0,00915952;21,77986;0,02177986;0;0;0;0,1422392;0,1421381;19988,35;21810,84
238;1,396862;-0,009117699;21,01336;0,02101336;0;0;0;0,1552069;0,1550866;19284,9;21045,98
245;1,513272;-0,00893678;19,3938;0,0193938;0;0;0;0,1681413;0,1680001;17798,55;19426,41
252;1,629921;-0,008815208;18,18398;0,01818398;0;0;0;0,1811024;0,1809386;16688,25;18216,92
259;1,74663;-0,008575083;17,8292;0,0178292;0;0;0;0,19407;0,193882;16362,65;17863,8
266;1,863399;-0,008399087;16,27762;0,01627762;0;0;0;0,2070444;0,2068303;14938,69;16311,32
273;1,980288;-0,008356044;15,68301;0,01568301;0;0;0;0,220032;0,2197903;14393;15717,52
280;2,096698;-0,008350709;15,43752;0,01543752;0;0;0;0,2329664;0,2326955;14167,7;15473,48
287;2,213168;-0,008658391;14,97887;0,01497887;0;0;0;0,2459075;0,2456057;13746,78;15015,71
294;2,329817;-0,008938962;13,8132;0,01381321;0;0;0;0,2588686;0,2585341;12676,99;13848,96
301;2,446646;-0,00917313;14,20695;0,01420695;0;0;0;0,2718495;0,2714807;13038,35;14245,57
308;2,563474;-0,008601336;15,23323;0,01523323;0;0;0;0,2848305;0,2844256;13980,21;15276,62
315;2,680243;-0,009090219;14,4777;0,0144777;0;0;0;0,2978048;0,2973622;13286,83;14520,81
322;2,796653;-0,008768903;14,36905;0,01436905;0;0;0;0,3107393;0,3102575;13187,12;14413,7
329;2,913183;-0,008407754;13,91334;0,01391334;0;0;0;0,323687;0,3231643;12768,89;13958,38
336;3,029892;-0,008380671;13,91594;0,01391594;0;0;0;0,3366547;0,3360893;12771,27;13962,78
343;3,146661;-0,008885812;12,95313;0,01295313;0;0;0;0,349629;0,3490192;11887,67;12998,42
350;3,26361;-0,008807441;14,44505;0,01444505;0;0;0;0,3626233;0,3619674;13256,87;14497,44
357;3,380139;-0,008844804;11,48055;0,01148055;0;0;0;0,375571;0,3748675;10536,21;11523,66
364;3,496549;-0,008942921;12,07569;0,01207569;0;0;0;0,3885055;0,3877527;11082,4;12122,6
371;3,613199;-0,009054258;11,68067;0,01168067;0;0;0;0,4014665;0,4006628;10719,87;11727,57
378;3,729968;-0,009168538;12,55063;0,01255063;0;0;0;0,4144408;0,4135844;11518,27;12602,64
385;3,846796;-0,009300804;12,13197;0,01213197;0;0;0;0,4274218;0,426511;11134,05;12183,83
392;3,963565;-0,009013393;14,22662;0,01422662;0;0;0;0,4403961;0,4394292;13056,41;14289,28
399;4,080094;-0,009023062;13,42993;0,01342993;0;0;0;0,4533438;0,4523193;12325,25;13490,82
406;4,196505;-0,008886886;13,4338;0,0134338;0;0;0;0,4662783;0,4651946;12328,8;13496,44
413;4,313214;-0,008835635;13,34805;0,01334805;0;0;0;0,479246;0,4781013;12250,1;13412,02
420;4,430043;-0,008649891;13,36929;0,01336929;0;0;0;0,492227;0,4910195;12269,6;13435,1
427;4,546871;-0,008515887;14,73367;0,01473367;0;0;0;0,5052078;0,503936;13521,75;14808,11
434;4,663521;-0,008494902;13,56673;0,01356673;0;0;0;0,518169;0,5168311;12450,79;13637,03
441;4,77999;-0,008632285;13,93786;0,01393786;0;0;0;0,53111;0,5297046;12791,4;14011,89
448;4,896461;-0,00878281;12,98759;0,01298759;0;0;0;0,5440512;0,5425766;11919,29;13058,25
455;5,013229;-0,008800931;12,38271;0,01238271;0;0;0;0,5570255;0,5554798;11364,16;12451,68
462;5,130058;-0,008831232;13,55396;0,01355395;0;0;0;0,5700064;0,568388;12439,07;13631,21
469;5,246947;-0,008699054;13,93732;0,01393732;0;0;0;0,5829941;0,5813012;12790,9;14018,58
476;5,363416;-0,008041289;13,77038;0,01377038;0;0;0;0,5959352;0,5941665;12637,69;13852,44
483;5,479946;-0,008636341;12,96527;0,01296527;0;0;0;0,6088829;0,6070367;11898,81;13044,22
490;5,596535;-0,008669119;12,2928;0,0122928;0;0;0;0,6218373;0,6199118;11281,65;12369,24
497;5,713245;-0,008813876;11,89279;0,01189279;0;0;0;0,634805;0,6327986;10914,54;11968,29
504;5,830133;-0,008829722;13,24782;0,01324782;0;0;0;0,6477926;0,6457034;12158,11;13333,64
511;5,946902;-0,00902763;13,4109;0,0134109;0;0;0;0,6607669;0,6585934;12307,78;13499,51
518;6,063372;-0,009101917;13,3322;0,0133322;0;0;0;0,673708;0,6714487;12235,55;13422,02
525;6,179842;-0,009203487;11,85447;0,01185447;0;0;0;0,6866491;0,6843024;10879,37;11935,87
532;6,296491;-0,009264346;12,2904;0,0122904;0;0;0;0,6996101;0,6971742;11279,45;12376,39
539;6,41332;-0,009220849;11,97178;0,01197178;0;0;0;0,7125911;0,7100642;10987,04;12057,09
546;6,530208;-0,00908529;12,91863;0,01291863;0;0;0;0,7255787;0,722959;11856;13012,36
553;6,646917;-0,009147805;12,0937;0,0120937;0;0;0;0,7385464;0,7358325;11098,93;12183,02
560;6,763268;-0,009078886;12,44555;0,01244555;0;0;0;0,7514742;0,7486647;11421,83;12539,07
567;6,879857;-0,008893605;11,80141;0,01180141;0;0;0;0,7644286;0,7615216;10830,68;11891,63
574;6,996566;-0,00870037;12,33998;0,01233998;0;0;0;0,7773963;0,7743901;11324,95;12435,91
581;7,113395;-0,008599375;12,20456;0,01220455;0;0;0;0,7903772;0,7872701;11200,67;12301,02
588;7,230284;-0,008494329;13,24224;0,01324224;0;0;0;0,8033649;0,8001551;12152,99;13348,62
595;7,346814;-0,00846839;13,13114;0,01313114;0;0;0;0,8163126;0,8129988;12051,03;13238,33
602;7,463224;-0,00817763;12,1909;0,0121909;0;0;0;0,8292471;0,8258277;11188,13;12291,99
609;7,579872;-0,008995504;12,67333;0,01267333;0;0;0;0,842208;0,8386813;11630,88;12780,06
616;8,402875;-0,009216189;12,86401;0,01286401;0;0;0;0,9336528;0,9293211;11805,88;12984,11
623;9,569547;-0,009219876;10,94237;0,01094237;0;0;0;1,063283;1,05767;10042,3;11058,72
630;10,73622;-0,008971773;8,970175;0,008970175;0;0;0;1,192913;1,185854;8232,33;9077,182
637;11,90277;-0,008627223;9,409632;0,009409633;0;0;0;1,32253;1,313861;8635,639;9534,077
644;13,06956;-0,007834847;8,967581;0,008967581;0;0;0;1,452174;1,441731;8229,949;9097,806
651;14,23624;-0,008243683;10,00536;0,01000536;0;0;0;1,581804;1,569424;9182,367;10163,63
658;15,40273;-0,008617869;9,526703;0,009526704;0;0;0;1,711414;1,696935;8743,08;9689,744
665;16,5694;-0,008853144;7,68538;0,00768538;0;0;0;1,841045;1,824303;7053,216;7826,871
672;17,73619;-0,009035462;7,148527;0,007148527;0;0;0;1,970688;1,951521;6560,522;7289,402
679;18,90287;-0,009308512;6,422315;0,006422315;0;0;0;2,100318;2,078566;5894,045;6557,204
686;20,06948;-0,009218447;6,160961;0,006160961;0;0;0;2,229942;2,205442;5654,188;6298,347
693;21,23615;-0,008795559;7,628508;0,007628508;0;0;0;2,359572;2,332165;7001,022;7808,508
700;22,40294;-0,008561136;7,224487;0,007224487;0;0;0;2,489216;2,45874;6630,234;7404,32
707;23,56949;-0,008444708;6,237116;0,006237116;0;0;0;2,618833;2,585128;5724,08;6400,456
714;24,73623;-0,008486586;7,319925;0,007319925;0;0;0;2,74847;2,711378;6717,821;7521,111
721;25,90278;-0,00850585;6,584267;0,006584267;0;0;0;2,878087;2,837448;6042,675;6773,767
728;27,06957;-0,008534524;6,158171;0,006158171;0;0;0;3,00773;2,963385;5651,628;6343,392
728,32;27,12296;-0,008189025;6,833825;0,006833825;0;0;0;3,013663;2,969144;6271,706;7039,774