Folder: scratch/scratch/KRAMS/src/apps/scratch/axel/tensile_tests (part 2)

File: pullout153.raw
"Prüfungstyp";"Manuell"
"Methodenname:";"C:\INSTRON\USER\TEMPLATE\Zugversuch Textilbeton.mtM"
"Name:";"Zugversuche Carbon"
"Prüfer";""
"Firma:";""
"Abteilung:";""
"Prüfdatum:";"01.01.97"
"Temperatur:";""
"Feuchtigkeit:";""
"Anmerkung 1:";""
"Anmerkung 2:";""
"Anmerkung 3:";""
"Geometrie:";"Rectangular"
"Probe";1
"Probenname:";"V19-Z-3-1"
"Breite:";100;"mm"
"Dicke:";10;"mm"
"Länge:";900;"mm"
"Durchmesser:";1.000000;"mm"
"Innendurchmesser:";0.500000;"mm"
"Außendurchm.:";1.000000;"mm"
"Wandstärke:";0.500000;"mm"
"Querschnitt:";1000;"mm*mm"
"Lineare Dichte:";1.000000;"den"
"Schlittengewicht:";9.806650;"N"
"Lade-Spannweite:";0.000000;"mm"
"Unterstütz.-Spannweite:";1.000000;"mm"
"Spannweitenverhältnis:";"2"
"Vorrichtungstyp:";"3-point"
"Kommentar:";""
"Eingefügt"
"Endbreite:";100;"mm"
"Enddicke:";10;"mm"
"Endlänge:";900;"mm"
"Enddurchmesser:";1.000000;"mm"
"Endinnendurchmesser:";0.500000;"mm"
"Endaußendurchmesser:";1.000000;"mm"
"Endwandstärke:";0.500000;"mm"
"Endquerschnitt:";1000;"mm*mm"
"Lineare Enddichte:";1.000000;"den"
"Zeit sec";"Verformung mm";"Dehnung 1 %";"Kraft N";"Spannung MPa";"Anz. der Zykl. ";"Zyklenzahl gesamt ";"Wiederholungswert ";"Dehnung [Trav.] %";"Tatsächliche dehnung %";"Zähigkeit gf/tex";"Tatsächliche spannung Pa"
0;0;-0,008726754;-24,68571;-0,02468571;0;0;0;0;0;-22655,18;-24685,71
1,5;0,005141897;-0,009230287;-19,46582;-0,01946582;0;0;0;0,0005713218;0,0005713202;-17864,65;-19465,93
3;0,01010442;-0,009368865;-17,06366;-0,01706366;0;0;0;0,001122714;0,001122707;-15660,08;-17063,85
4,5;0,01500716;-0,009174523;-14,05951;-0,01405951;0;0;0;0,001667463;0,001667449;-12903,04;-14059,74
6;0,02008927;-0,009340472;-10,31035;-0,01031035;0;0;0;0,002232141;0,002232116;-9462,269;-10310,58
7,5;0,02499201;-0,009132284;-8,55688;-0,00855688;0;0;0;0,00277689;0,002776851;-7853,03;-8557,117
9;0,03013391;-0,009296915;-5,41324;-0,00541324;0;0;0;0,003348212;0,003348156;-4967,972;-5413,421
10,5;0,03497685;-0,009186952;-4,654823;-0,004654823;0;0;0;0,003886317;0,003886241;-4271,939;-4655,004
12;0,04011875;-0,009269737;-1,568006;-0,001568006;0;0;0;0,004457639;0,004457539;-1439,029;-1568,076
13,5;0,0449617;-0,009242173;-0,8634262;-0,0008634262;0;0;0;0,004995744;0,00499562;-792,4048;-863,4694
15;0,05010359;-0,009307761;2,289023;0,002289023;0;0;0;0,005567066;0,005566911;2100,739;2289,151
16,5;0,05494654;-0,00922726;2,403794;0,002403794;0;0;0;0,006105172;0,006104985;2206,069;2403,941
18;0,06014823;-0,009424839;6,282994;0,006282994;0;0;0;0,006683137;0,006682913;5766,184;6283,414
19,5;0,06493139;-0,009266991;6,234639;0,006234638;0;0;0;0,007214599;0,007214339;5721,806;6235,088
21;0,07007328;-0,009363739;8,754602;0,008754602;0;0;0;0,007785921;0,007785617;8034,488;8755,283
22,5;0,07491623;-0,009319749;9,056431;0,009056431;0;0;0;0,008324025;0,008323678;8311,49;9057,185
24;0,08005813;-0,009392211;11,12798;0,01112798;0;0;0;0,008895348;0,008894952;10212,64;11128,97
25,5;0,08496087;-0,009329658;12,99236;0,01299236;0;0;0;0,009440097;0,009439651;11923,66;12993,58
27;0,09004297;-0,009294405;14,86725;0,01486725;0;0;0;0,01000477;0,01000427;13644,34;14868,74
28,5;0,09494571;-0,009291898;15,9738;0,0159738;0;0;0;0,01054952;0,01054897;14659,87;15975,48
30;0,1000278;-0,009264236;17,1196;0,0171196;0;0;0;0,0111142;0,01111358;15711,42;17121,5
31,5;0,1049904;-0,00927615;19,42201;0,01942201;0;0;0;0,01166559;0,01166491;17824,45;19424,28
33;0,1100127;-0,009269397;19,47188;0,01947188;0;0;0;0,01222363;0,01222288;17870,21;19474,26
34,5;0,115035;-0,009275898;21,48671;0,02148671;0;0;0;0,01278166;0,01278085;19719,31;21489,45
36;0,1199975;-0,009185125;21,53555;0,02153555;0;0;0;0,01333306;0,01333217;19764,14;21538,42
37,5;0,1250796;-0,00920795;23,65541;0,02365541;0;0;0;0,01389773;0,01389677;21709,62;23658,7
39;0,1299824;-0,00915113;23,27395;0,02327395;0;0;0;0,01444248;0,01444144;21359,54;23277,31
40,5;0,1350645;-0,009131774;24,20831;0,02420831;0;0;0;0,01500716;0,01500604;22217,05;24211,95
42;0,1399074;-0,00908084;24,7762;0,0247762;0;0;0;0,01554527;0,01554406;22738,22;24780,05
43,5;0,1450493;-0,009056072;25,8687;0,0258687;0;0;0;0,01611659;0,01611529;23740,86;25872,86
45;0,149952;-0,009067536;25,87726;0,02587726;0;0;0;0,01666134;0,01665995;23748,72;25881,57
46,5;0,1550342;-0,009005496;26,76117;0,02676117;0;0;0;0,01722602;0,01722453;24559,92;26765,78
48;0,1599369;-0,009075514;27,05928;0,02705928;0;0;0;0,01777076;0,01776919;24833,51;27064,09
49,5;0,1650788;-0,008958824;27,76258;0,02776258;0;0;0;0,01834209;0,01834041;25478,96;27767,68
51;0,1699217;-0,009113831;27,24922;0,02724922;0;0;0;0,01888019;0,01887841;25007,83;27254,37
52,5;0,1750636;-0,008944458;28,1785;0,0281785;0;0;0;0,01945151;0,01944962;25860,66;28183,98
54;0,1799066;-0,009067692;27,95527;0,02795527;0;0;0;0,01998962;0,01998762;25655,8;27960,86
55,5;0,1850485;-0,008845773;27,35519;0,02735518;0;0;0;0,02056094;0,02055883;25105,07;27360,81
57;0,1898914;-0,009027357;26,03647;0,02603647;0;0;0;0,02109905;0,02109682;23894,83;26041,96
58,5;0,1949735;-0,008961478;25,65946;0,02565946;0;0;0;0,02166373;0,02166138;23548,84;25665,02
60;0,1999361;-0,008974212;25,76944;0,02576944;0;0;0;0,02221512;0,02221265;23649,76;25775,16
61,5;0,2050182;-0,008809355;25,40961;0,02540961;0;0;0;0,0227798;0,0227772;23319,54;25415,4
63;0,2099807;-0,009027565;24,82876;0,02482876;0;0;0;0,02333119;0,02332847;22786,46;24834,55
64,5;0,215003;-0,008875134;24,60788;0,02460788;0;0;0;0,02388922;0,02388637;22583,75;24613,76
66;0,2200253;-0,009023857;24,77668;0,02477668;0;0;0;0,02444726;0,02444427;22738,67;24782,74
67,5;0,2249878;-0,008882112;24,69867;0,02469867;0;0;0;0,02499865;0,02499553;22667,07;24704,85
69;0,23007;-0,009032068;24,12266;0,02412266;0;0;0;0,02556333;0,02556006;22138,45;24128,83
70,5;0,2349727;-0,008909882;23,71977;0,02371977;0;0;0;0,02610808;0,02610467;21768,69;23725,96
72;0,2400548;-0,009052993;23,2255;0,0232255;0;0;0;0,02667276;0,0266692;21315,07;23231,69
73,5;0,4920675;-0,008973418;22,5495;0,0225495;0;0;0;0,05467416;0,05465922;20694,68;22561,83
75;0,9919674;-0,009147726;20,86949;0,02086949;0;0;0;0,1102186;0,1101579;19152,86;20892,49
76,5;1,491927;-0,009041894;19,37179;0,01937179;0;0;0;0,1657697;0,1656324;17778,36;19403,91
78;1,991827;-0,009219699;17,35702;0,01735702;0;0;0;0,2213141;0,2210696;15929,31;17395,43
79,5;2,491847;-0,009087368;16,89363;0,01689363;0;0;0;0,2768718;0,2764893;15504,04;16940,4
81;2,991926;-0,009243152;17,22218;0,01722218;0;0;0;0,3324362;0,3318849;15805,56;17279,43
82,5;3,491826;-0,009179196;16,60521;0,01660521;0;0;0;0,3879806;0,3872299;15239,34;16669,63
84;3,991845;-0,009315974;15,42711;0,01542711;0;0;0;0,4435384;0,4425576;14158,15;15495,53
85,5;4,491925;-0,009206284;17,3393;0,0173393;0;0;0;0,4991027;0,4978614;15913,05;17425,84
87;4,991825;-0,009308449;17,42989;0,01742989;0;0;0;0,5546472;0,5531147;15996,19;17526,57
88,5;5,491724;-0,009272303;16,46122;0,01646122;0;0;0;0,6101916;0,6083375;15107,2;16561,66
90;5,991864;-0,009347341;16,95446;0,01695446;0;0;0;0,6657627;0,6635562;15559,87;17067,34
91,5;6,491883;-0,009212677;17,85398;0,01785398;0;0;0;0,7213203;0,7187313;16385,4;17982,77
93;6,991843;-0,0093592;17,08778;0,01708778;0;0;0;0,7768714;0,7738693;15682,22;17220,53
94,5;7,491803;-0,009250257;15,6472;0,0156472;0;0;0;0,8324225;0,828977;14360,14;15777,46
96;7,991942;-0,009414039;15,93518;0,01593518;0;0;0;0,8879936;0,8840741;14624,43;16076,69
97,5;8,491782;-0,009243874;14,97977;0,01497977;0;0;0;0,9435313;0,9391078;13747,6;15121,11
99;8,991801;-0,009367375;14,953;0,014953;0;0;0;0,999089;0,9941311;13723,04;15102,39
100,5;9,491821;-0,009257401;15,71827;0,01571827;0;0;0;1,054647;1,049124;14425,36;15884,04
102;9,99196;-0,009395543;16,94845;0,01694844;0;0;0;1,110218;1,1041;15554,34;17136,61
103,5;10,49186;-0,009206953;17,247;0,017247;0;0;0;1,165762;1,15902;15828,34;17448,05
105;10,99182;-0,009327459;14,79492;0,01479492;0;0;0;1,221313;1,213916;13577,95;14975,61
106,5;11,4919;-0,009212855;17,513;0,017513;0;0;0;1,276878;1,268794;16072,46;17736,62
108;11,99186;-0,00939734;17,36637;0,01736637;0;0;0;1,332429;1,32363;15937,89;17597,76
109,5;12,49176;-0,009180191;14,4139;0,0144139;0;0;0;1,387973;1,378429;13228,28;14613,96
111;12,99184;-0,009353691;16,32819;0,01632819;0;0;0;1,443538;1,433218;14985,11;16563,9
112,5;13,49192;-0,009140116;16,49338;0,01649337;0;0;0;1,499102;1,487976;15136,71;16740,63
114;13,99182;-0,00933345;15,8582;0,0158582;0;0;0;1,554646;1,542686;14553,77;16104,74
115,5;14,49178;-0,009148145;13,99544;0,01399544;0;0;0;1,610197;1,597371;12844,24;14220,79
117;14,99186;-0,009356101;13,35761;0,01335762;0;0;0;1,665762;1,65204;12258,88;13580,12
118,5;15,49194;-0,008712292;11,36697;0,01136697;0;0;0;1,721326;1,706679;10431,97;11562,63
120;15,99184;-0,009311262;13,54923;0,01354923;0;0;0;1,776871;1,761269;12434,73;13789,98
121,5;16,4918;-0,008779455;8,865457;0,008865457;0;0;0;1,832422;1,815835;8136,225;9027,909
123;16,99182;-0,009315813;8,686767;0,008686767;0;0;0;1,88798;1,870378;7972,233;8850,771
124,5;17,49177;-0,008971777;8,924824;0,008924824;0;0;0;1,943531;1,924885;8190,709;9098,281
126;17,99179;-0,009361883;7,483803;0,007483803;0;0;0;1,999088;1,979369;6868,22;7633,411
127,5;18,49193;-0,009095045;7,593925;0,007593925;0;0;0;2,054659;2,033836;6969,284;7749,954
129;18,99195;-0,009302653;8,253526;0,008253526;0;0;0;2,110217;2,08826;7574,629;8427,693
130,5;19,49185;-0,009272074;7,394973;0,007394973;0;0;0;2,165761;2,142642;6786,696;7555,13
132;19,99187;-0,009316273;7,100093;0,007100093;0;0;0;2,221319;2,197007;6516,072;7257,808
133,5;20,49177;-0,009230435;6,839277;0,006839277;0;0;0;2,276863;2,25133;6276,709;6994,998
135;20,99179;-0,009347918;7,123438;0,007123438;0;0;0;2,332421;2,305636;6537,497;7289,587
136,5;21,49181;-0,009308884;7,579291;0,007579291;0;0;0;2,387979;2,359913;6955,853;7760,283
136,606;21,52721;-0,007932044;7,624025;0,007624025;0;0;0;2,391912;2,363754;6996,908;7806,385

File: pullout155.raw
"Prüfungstyp";"Manuell"
"Methodenname:";"C:\INSTRON\USER\TEMPLATE\Zugversuch Textilbeton.mtM"
"Name:";"Zugversuche Carbon"
"Prüfer";""
"Firma:";""
"Abteilung:";""
"Prüfdatum:";"01.01.97"
"Temperatur:";""
"Feuchtigkeit:";""
"Anmerkung 1:";""
"Anmerkung 2:";""
"Anmerkung 3:";""
"Geometrie:";"Rectangular"
"Probe";1
"Probenname:";"V19-Z-3-1"
"Breite:";100;"mm"
"Dicke:";10;"mm"
"Länge:";900;"mm"
"Durchmesser:";1.000000;"mm"
"Innendurchmesser:";0.500000;"mm"
"Außendurchm.:";1.000000;"mm"
"Wandstärke:";0.500000;"mm"
"Querschnitt:";1000;"mm*mm"
"Lineare Dichte:";1.000000;"den"
"Schlittengewicht:";9.806650;"N"
"Lade-Spannweite:";0.000000;"mm"
"Unterstütz.-Spannweite:";1.000000;"mm"
"Spannweitenverhältnis:";"2"
"Vorrichtungstyp:";"3-point"
"Kommentar:";""
"Eingefügt"
"Endbreite:";100;"mm"
"Enddicke:";10;"mm"
"Endlänge:";900;"mm"
"Enddurchmesser:";1.000000;"mm"
"Endinnendurchmesser:";0.500000;"mm"
"Endaußendurchmesser:";1.000000;"mm"
"Endwandstärke:";0.500000;"mm"
"Endquerschnitt:";1000;"mm*mm"
"Lineare Enddichte:";1.000000;"den"
"Zeit sec";"Verformung mm";"Dehnung 1 %";"Kraft N";"Spannung MPa";"Anz. der Zykl. ";"Zyklenzahl gesamt ";"Wiederholungswert ";"Dehnung [Trav.] %";"Tatsächliche dehnung %";"Zähigkeit gf/tex";"Tatsächliche spannung Pa"
0;5,978949e-005;-0,008219611;-128,7327;-0,1287327;0;0;0;6,643277e-006;6,643277e-006;-118143,7;-128732,7
3,5;0,01165895;-0,008547247;-106,8761;-0,1068761;0;0;0;0,001295439;0,001295431;-98085,01;-106877,5
7;0,02343748;-0,008423994;-95,04282;-0,09504282;0;0;0;0,002604165;0,002604131;-87225,04;-95045,3
10,5;0,03503664;-0,008707711;-88,78667;-0,08878667;0;0;0;0,00389296;0,003892884;-81483,48;-88790,13
14;0,04669559;-0,00839186;-82,77704;-0,08277705;0;0;0;0,005188399;0,005188264;-75968,19;-82781,34
17,5;0,05823497;-0,008658254;-78,5061;-0,0785061;0;0;0;0,006470552;0,006470343;-72048,55;-78511,18
21;0,0699537;-0,008477168;-76,65729;-0,0766573;0;0;0;0,007772634;0,007772332;-70351,82;-76663,25
24,5;0,08161265;-0,008595905;-73,89712;-0,07389712;0;0;0;0,009068073;0,009067661;-67818,68;-73903,82
28;0,09333139;-0,008437822;-71,61844;-0,07161845;0;0;0;0,01037015;0,01036962;-65727,44;-71625,87
31,5;0,1050501;-0,008605683;-68,40374;-0,06840374;0;0;0;0,01167224;0,01167156;-62777,16;-68411,72
35;0,1167689;-0,008500126;-65,25692;-0,06525692;0;0;0;0,01297432;0,01297348;-59889,18;-65265,38
38,5;0,128368;-0,008710792;-61,47149;-0,06147149;0;0;0;0,01426311;0,0142621;-56415,13;-61480,26
42;0,1400868;-0,008689825;-57,99122;-0,05799122;0;0;0;0,0155652;0,01556399;-53221,13;-58000,25
45,5;0,1516262;-0,008870919;-56,10448;-0,05610448;0;0;0;0,01684735;0,01684593;-51489,59;-56113,94
49;0,1632253;-0,008923531;-53,24001;-0,05324001;0;0;0;0,01813615;0,0181345;-48860,73;-53249,67
52,5;0,1749441;-0,009040423;-50,56377;-0,05056377;0;0;0;0,01943823;0,01943634;-46404,63;-50573,6
56;0,1866628;-0,009045997;-46,09902;-0,04609902;0;0;0;0,02074031;0,02073816;-42307,13;-46108,58
59,5;0,1983815;-0,009201768;-41,60667;-0,04160667;0;0;0;0,02204239;0,02203996;-38184,29;-41615,84
63;0,2100405;-0,009276087;-37,92921;-0,03792921;0;0;0;0,02333783;0,02333511;-34809,33;-37938,06
66,5;0,2217592;-0,009272721;-33,23198;-0,03323198;0;0;0;0,02463991;0,02463688;-30498,47;-33240,17
70;0,2334182;-0,009110602;-29,22196;-0,02922196;0;0;0;0,02593536;0,02593199;-26818,29;-29229,54
73,5;0,2450173;-0,008968102;-25,843;-0,025843;0;0;0;0,02722415;0,02722044;-23717,27;-25850,03
77;0,2565567;-0,008812235;-22,38001;-0,02238001;0;0;0;0,0285063;0,02850224;-20539,13;-22386,39
80,5;0,2682754;-0,008555861;-18,79564;-0,01879564;0;0;0;0,02980838;0,02980394;-17249,6;-18801,24
84;0,2799344;-0,008572628;-15,89456;-0,01589456;0;0;0;0,03110382;0,03109899;-14587,15;-15899,5
87,5;0,2916531;-0,008425497;-14,10693;-0,01410693;0;0;0;0,03240591;0,03240065;-12946,56;-14111,5
91;0,3033719;-0,008707818;-12,66444;-0,01266444;0;0;0;0,03370798;0,0337023;-11622,72;-12668,71
94,5;0,3150906;-0,00864596;-11,75645;-0,01175645;0;0;0;0,03501007;0,03500394;-10789,42;-11760,57
98;0,3266898;-0,008927892;-11,2173;-0,0112173;0;0;0;0,03629886;0,03629227;-10294,61;-11221,37
101,5;0,3384085;-0,008899407;-11,18416;-0,01118416;0;0;0;0,03760095;0,03759388;-10264,21;-11188,37
105;0,3499479;-0,009146205;-11,16234;-0,01116234;0;0;0;0,0388831;0,03887554;-10244,17;-11166,68
108,5;0,3616069;-0,009234809;-9,687398;-0,009687398;0;0;0;0,04017854;0,04017047;-8890,557;-9691,29
112;0,3732658;-0,009228804;-8,933484;-0,008933484;0;0;0;0,04147398;0,04146538;-8198,656;-8937,189
115,5;0,3849248;-0,00925309;-7,784015;-0,007784015;0;0;0;0,04276942;0,04276027;-7143,738;-7787,344
119;0,3966435;-0,009203617;-6,470882;-0,006470882;0;0;0;0,0440715;0,04406179;-5938,617;-6473,734
122,5;0,408422;-0,009285512;-5,770316;-0,005770316;0;0;0;0,04538022;0,04536993;-5295,676;-5772,934
126;0,420081;-0,009177514;-5,223038;-0,005223038;0;0;0;0,04667566;0,04666477;-4793,415;-5225,476
129,5;0,4317399;-0,009206246;-3,791659;-0,003791659;0;0;0;0,0479711;0,0479596;-3479,775;-3793,478
133;0,4433989;-0,009159189;-4,244184;-0,004244184;0;0;0;0,04926654;0,04925441;-3895,077;-4246,275
136,5;0,4548785;-0,009165577;-3,612284;-0,003612285;0;0;0;0,05054205;0,05052928;-3315,155;-3614,11
140;0,4665972;-0,008961553;-2,86439;-0,00286439;0;0;0;0,05184413;0,0518307;-2628,779;-2865,875
143,5;0,4783159;-0,009008846;-0,4525909;-0,0004525909;0;0;0;0,05314621;0,0531321;-415,3629;-452,8315
147;0,4899749;-0,00896867;-0,06936953;-6,936953e-005;0;0;0;0,05444165;0,05442684;-63,66351;-69,40729
150,5;0,5016338;-0,009001765;1,109807;0,001109807;0;0;0;0,05573709;0,05572156;1018,52;1110,426
154;0,5134124;-0,008816135;2,999829;0,002999829;0;0;0;0,05704582;0,05702955;2753,076;3001,54
157,5;0,5250713;-0,008807385;3,838805;0,003838805;0;0;0;0,05834125;0,05832424;3523,042;3841,044
161;0,5367901;-0,008717482;5,982447;0,005982447;0;0;0;0,05964334;0,05962556;5490,358;5986,015
164,5;0,5483294;-0,00886137;5,694908;0,005694909;0;0;0;0,06092549;0,06090694;5226,471;5698,378
168;0,5598688;-0,008848534;5,996249;0,005996249;0;0;0;0,06220765;0,06218831;5503,025;5999,979
171,5;0,5715875;-0,009035801;7,229018;0,007229018;0;0;0;0,06350973;0,06348957;6634,393;7233,609
175;0,5833063;-0,00882251;8,663578;0,008663578;0;0;0;0,06481181;0,06479081;7950,952;8669,193
178,5;0,595025;-0,008946122;9,775361;0,009775361;0;0;0;0,06611389;0,06609205;8971,285;9781,824
182;0,6066839;-0,008862629;10,34647;0,01034647;0;0;0;0,06740932;0,06738661;9495,42;10353,45
185,5;0,6184027;-0,009147995;11,53201;0,01153201;0;0;0;0,06871141;0,06868782;10583,44;11539,94
189;0,6300616;-0,009159915;12,69988;0,01269988;0;0;0;0,07000685;0,06998236;11655,25;12708,78
192,5;0,6417206;-0,009174776;14,03025;0,01403025;0;0;0;0,07130229;0,07127688;12876,18;14040,25
196;0,65326;-0,00929038;15,35718;0,01535718;0;0;0;0,07258444;0,07255811;14093,97;15368,33
199,5;0,6648591;-0,009354345;16,22768;0,01622768;0;0;0;0,07387324;0,07384596;14892,86;16239,66
203;0,6766376;-0,009303623;18,08138;0,01808138;0;0;0;0,07518196;0,07515371;16594,09;18094,97
206,5;0,6882966;-0,009273155;19,51922;0,01951922;0;0;0;0,0764774;0,07644817;17913,66;19534,15
210;0,6999556;-0,009289205;20,23153;0,02023153;0;0;0;0,07777284;0,07774261;18567,38;20247,27
213,5;0,7117341;-0,009320822;20,5847;0,0205847;0;0;0;0,07908157;0,07905032;18891,5;20600,98
217;0,723393;-0,009310055;20,51256;0,02051256;0;0;0;0,08037701;0,08034472;18825,29;20529,05
220,5;0,735052;-0,009332201;20,51569;0,0205157;0;0;0;0,08167245;0,08163912;18828,17;20532,45
224;0,7466512;-0,009150985;19,65019;0,01965019;0;0;0;0,08296124;0,08292685;18033,86;19666,49
227,5;0,7582503;-0,009200475;17,93392;0,01793392;0;0;0;0,08425004;0,08421457;16458,76;17949,03
231;0,7699093;-0,009141749;17,95893;0,01795893;0;0;0;0,08554548;0,08550891;16481,71;17974,29
234,5;0,781628;-0,008409142;18,17746;0,01817746;0;0;0;0,08684755;0,08680986;16682,26;18193,24
238;0,7933467;-0,009024514;18,96715;0,01896715;0;0;0;0,08814964;0,08811081;17407;18983,87
241,5;0,8050057;-0,0089775;18,33441;0,01833441;0;0;0;0,08944508;0,0894051;16826,31;18350,81
245;0,8167842;-0,008899231;19,77529;0,01977529;0;0;0;0,09075381;0,09071265;18148,66;19793,24
248,5;0,8283834;-0,008884379;18,38605;0,01838605;0;0;0;0,0920426;0,09200027;16873,7;18402,97
252;0,8400423;-0,008770886;19,1453;0,0191453;0;0;0;0,09333804;0,0932945;17570,49;19163,17
255,5;0,8515817;-0,008691415;17,23423;0,01723423;0;0;0;0,09462019;0,09457545;15816,62;17250,54
259;0,8632407;-0,008641705;16,72337;0,01672337;0;0;0;0,09591563;0,09586966;15347,78;16739,41
262,5;0,8749594;-0,008595629;17,14144;0,01714144;0;0;0;0,09721772;0,09717049;15731,46;17158,1
266;1,425979;-0,008495157;16,80055;0,01680055;0;0;0;0,1584422;0,1583168;15418,61;16827,17
269,5;2,592592;-0,008577029;15,16161;0,01516161;0;0;0;0,2880658;0,2876517;13914,48;15205,28
273;3,759204;-0,008433438;13,46192;0,01346192;0;0;0;0,4176894;0,4168195;12354,61;13518,15
276,5;4,926056;-0,008650234;13,82048;0,01382048;0;0;0;0,5473396;0,5458471;12683,67;13896,12
280;6,092669;-0,008746595;14,00435;0,01400435;0;0;0;0,6769632;0,6746821;12852,42;14099,16
283,5;7,259162;-0,008825446;12,54625;0,01254625;0;0;0;0,8065736;0,8033381;11514,25;12647,45
287;8,426013;-0,009126873;12,66298;0,01266298;0;0;0;0,9362237;0,9318683;11621,38;12781,53
290,5;9,592626;-0,009057677;12,6182;0,0126182;0;0;0;1,065847;1,060207;11580,28;12752,69
294;10,75918;-0,00930762;10,91915;0,01091915;0;0;0;1,195464;1,188375;10020,99;11049,69
297,5;11,92591;-0,009367467;9,817696;0,009817696;0;0;0;1,325101;1,316399;9010,138;9947,791
301;13,09258;-0,009232674;10,06001;0,01006001;0;0;0;1,454732;1,444252;9232,521;10206,36
304,5;14,2592;-0,009276401;9,636412;0,009636412;0;0;0;1,584355;1,571935;8843,765;9789,087
308;15,42587;-0,008841481;9,593881;0,009593882;0;0;0;1,713985;1,699462;8804,732;9758,319
311,5;16,59266;-0,008921828;10,27095;0,01027096;0;0;0;1,843629;1,82684;9426,113;10460,31
315;17,75915;-0,008767422;8,983712;0,008983713;0;0;0;1,973239;1,954023;8244,753;9160,982
318,5;18,92588;-0,00861961;8,937804;0,008937804;0;0;0;2,102876;2,081071;8202,621;9125,755
322;20,09256;-0,008517081;8,158489;0,008158489;0;0;0;2,232507;2,207951;7487,409;8340,628
325,5;21,25911;-0,008583971;8,345108;0,008345108;0;0;0;2,362123;2,334657;7658,678;8542,23
329;22,42578;-0,008458337;8,201657;0,008201657;0;0;0;2,491754;2,461216;7527,026;8406,022
332,5;23,59257;-0,008724834;7,100494;0,007100494;0;0;0;2,621397;2,587627;6516,44;7286,626
335,378;24,55196;-0,00778;7,32382;0,00732382;0;0;0;2,727995;2,691449;6721,396;7523,613